loggingTime(txt),loggingSample(N),accelerometerTimestamp_sinceReboot(s),accelerometerAccelerationX(G),accelerometerAccelerationY(G),accelerometerAccelerationZ(G)
2018-09-06 10:04:50.961 -0400,1,440517.8683,-1.00227356,-0.01612854004,0.01725769043
2018-09-06 10:04:51.308 -0400,2,440517.8852,-1.003265381,-0.01710510254,0.01873779297
2018-09-06 10:04:51.335 -0400,3,440517.902,-1.003890991,6.10E-05,0.0295715332
2018-09-06 10:04:51.496 -0400,4,440517.9189,-1.004425049,-0.003356933594,0.03450012207
2018-09-06 10:04:51.498 -0400,5,440517.9358,-1.006881714,-0.008270263672,0.03645324707
2018-09-06 10:04:51.501 -0400,6,440517.9526,-1.00541687,-0.006301879883,0.03746032715
2018-09-06 10:04:51.521 -0400,7,440517.9695,-1.002502441,-0.013671875,0.04537963867
2018-09-06 10:04:51.522 -0400,8,440517.9864,-1.006958008,-0.01316833496,0.04780578613
2018-09-06 10:04:51.535 -0400,9,440518.0032,-1.004959106,-0.01808166504,0.04437255859
2018-09-06 10:04:51.536 -0400,10,440518.0201,-1.005477905,-0.015625,0.04682922363
2018-09-06 10:04:51.539 -0400,11,440518.037,-1.006942749,-0.008758544922,0.04336547852
2018-09-06 10:04:51.549 -0400,12,440518.0538,-1.004455566,-0.0146484375,0.0424041748
2018-09-06 10:04:51.563 -0400,13,440518.0707,-1.006378174,-0.01513671875,0.0379486084
2018-09-06 10:04:51.566 -0400,14,440518.0876,-1.007415771,-0.015625,0.04286193848
2018-09-06 10:04:51.568 -0400,15,440518.1044,-1.005889893,-0.013671875,0.03746032715
2018-09-06 10:04:51.570 -0400,16,440518.1213,-1.002471924,-0.009735107422,0.03994750977
2018-09-06 10:04:51.572 -0400,17,440518.1382,-1.003875732,-0.01858520508,0.03303527832
2018-09-06 10:04:51.573 -0400,18,440518.1551,-1.002380371,-0.01759338379,0.03205871582
2018-09-06 10:04:51.575 -0400,19,440518.1719,-1.002929688,-0.01513671875,0.03797912598
2018-09-06 10:04:51.576 -0400,20,440518.1888,-1.002456665,-0.02153015137,0.0414276123
2018-09-06 10:04:51.597 -0400,21,440518.2057,-1.006896973,-0.01661682129,0.04040527344
2018-09-06 10:04:51.599 -0400,22,440518.2225,-1.004470825,-0.01416015625,0.04388427734
2018-09-06 10:04:51.601 -0400,23,440518.2394,-1.005432129,-0.01219177246,0.04139709473
2018-09-06 10:04:51.603 -0400,24,440518.2563,-1.004425049,-0.006790161133,0.03598022461
2018-09-06 10:04:51.613 -0400,25,440518.2731,-1.004425049,-0.005325317383,0.03648376465
2018-09-06 10:04:51.618 -0400,26,440518.29,-1.006347656,-0.006790161133,0.03004455566
2018-09-06 10:04:51.621 -0400,27,440518.3069,-1.005859375,-0.003356933594,0.0305480957
2018-09-06 10:04:51.623 -0400,28,440518.3237,-1.004837036,-0.007781982422,0.02709960938
2018-09-06 10:04:51.624 -0400,29,440518.3406,-1.005386353,-0.003356933594,0.03202819824
2018-09-06 10:04:51.627 -0400,30,440518.3575,-1.003875732,-0.01219177246,0.03106689453
2018-09-06 10:04:51.628 -0400,31,440518.3743,-1.002853394,-0.013671875,0.0276184082
2018-09-06 10:04:51.630 -0400,32,440518.3912,-1.004348755,-0.01759338379,0.03155517578
2018-09-06 10:04:51.632 -0400,33,440518.4081,-1.005371094,-0.01710510254,0.03549194336
2018-09-06 10:04:51.633 -0400,34,440518.425,-1.00491333,-0.01710510254,0.03894042969
2018-09-06 10:04:51.635 -0400,35,440518.4418,-1.004959106,-0.01268005371,0.0433807373
2018-09-06 10:04:51.640 -0400,36,440518.4587,-1.003463745,-0.01316833496,0.04092407227
2018-09-06 10:04:51.643 -0400,37,440518.4756,-1.001525879,-0.006301879883,0.04241943359
2018-09-06 10:04:51.645 -0400,38,440518.4924,-1.007400513,-0.006301879883,0.03941345215
2018-09-06 10:04:51.646 -0400,39,440518.5093,-1.00642395,0.001541137695,0.03744506836
2018-09-06 10:04:51.648 -0400,40,440518.5262,-1.00932312,-0.0004119873047,0.03100585938
2018-09-06 10:04:51.650 -0400,41,440518.543,-1.017196655,0.002029418945,0.02847290039
2018-09-06 10:04:51.652 -0400,42,440518.5599,-1.005340576,0.003509521484,0.02462768555
2018-09-06 10:04:51.655 -0400,43,440518.5768,-1.004364014,-0.003356933594,0.02857971191
2018-09-06 10:04:51.656 -0400,44,440518.5936,-1.007263184,-0.005813598633,0.02214050293
2018-09-06 10:04:51.658 -0400,45,440518.6105,-1.006332397,-0.007278442383,0.02856445313
2018-09-06 10:04:51.660 -0400,46,440518.6274,-1.002944946,-0.003845214844,0.03451538086
2018-09-06 10:04:51.662 -0400,47,440518.6442,-1.005432129,-0.007278442383,0.03942871094
2018-09-06 10:04:51.664 -0400,48,440518.6611,-1.004425049,-0.005325317383,0.03648376465
2018-09-06 10:04:51.665 -0400,49,440518.678,-1.005355835,-0.004821777344,0.03005981445
2018-09-06 10:04:51.667 -0400,50,440518.6949,-1.006378174,-0.0009002685547,0.03251647949
2018-09-06 10:04:51.676 -0400,51,440518.7117,-1.004882813,-0.005813598633,0.03105163574
2018-09-06 10:04:51.677 -0400,52,440518.7286,-1.004379272,-0.007278442383,0.03105163574
2018-09-06 10:04:51.679 -0400,53,440518.7455,-1.004394531,-0.01121520996,0.03352355957
2018-09-06 10:04:51.681 -0400,54,440518.7623,-1.004379272,-0.01956176758,0.03500366211
2018-09-06 10:04:51.684 -0400,55,440518.7792,-1.005844116,-0.02496337891,0.03498840332
2018-09-06 10:04:51.685 -0400,56,440518.7961,-1.004272461,-0.02546691895,0.02415466309
2018-09-06 10:04:51.687 -0400,57,440518.8129,-1.00328064,-0.02349853516,0.02366638184
2018-09-06 10:04:51.688 -0400,58,440518.8298,-1.004257202,-0.02252197266,0.02119445801
2018-09-06 10:04:51.690 -0400,59,440518.8467,-1.004776001,-0.01564025879,0.02267456055
2018-09-06 10:04:51.693 -0400,60,440518.8635,-1.005340576,-0.01661682129,0.03153991699
2018-09-06 10:04:51.702 -0400,61,440518.8804,-1.00579834,-0.01661682129,0.02758789063
2018-09-06 10:04:51.717 -0400,62,440518.8973,-1.005310059,-0.01809692383,0.02857971191
2018-09-06 10:04:51.736 -0400,63,440518.9142,-1.005340576,-0.01661682129,0.03153991699
2018-09-06 10:04:51.753 -0400,64,440518.931,-1.004928589,-0.013671875,0.04090881348
2018-09-06 10:04:51.770 -0400,65,440518.9479,-1.005996704,-0.015625,0.05076599121
2018-09-06 10:04:51.785 -0400,66,440518.9648,-1.005020142,-0.01661682129,0.05274963379
2018-09-06 10:04:51.835 -0400,67,440518.9816,-1.005981445,-0.01611328125,0.04879760742
2018-09-06 10:04:51.876 -0400,68,440518.9985,-1.00390625,-0.01759338379,0.03648376465
2018-09-06 10:04:51.878 -0400,69,440519.0154,-1.003845215,-0.01612854004,0.02958679199
2018-09-06 10:04:51.879 -0400,70,440519.0322,-1.004379272,-0.01318359375,0.03253173828
2018-09-06 10:04:51.881 -0400,71,440519.0491,-1.005905151,-0.013671875,0.03894042969
2018-09-06 10:04:51.887 -0400,72,440519.066,-1.007400513,-0.013671875,0.04040527344
2018-09-06 10:04:51.905 -0400,73,440519.0828,-1.002914429,-0.013671875,0.03550720215
2018-09-06 10:04:51.919 -0400,74,440519.0997,-1.005889893,-0.009246826172,0.03498840332
2018-09-06 10:04:51.938 -0400,75,440519.1166,-1.004943848,-0.007278442383,0.03993225098
2018-09-06 10:04:51.953 -0400,76,440519.1334,-1.006439209,-0.007278442383,0.04188537598
2018-09-06 10:04:51.972 -0400,77,440519.1503,-1.004852295,-0.01416015625,0.03153991699
2018-09-06 10:04:51.986 -0400,78,440519.1672,-1.004211426,-0.02153015137,0.01626586914
2018-09-06 10:04:52.006 -0400,79,440519.1841,-1.004638672,-0.02301025391,0.008865356445
2018-09-06 10:04:52.021 -0400,80,440519.2009,-1.006118774,-0.02938842773,0.01081848145
2018-09-06 10:04:52.040 -0400,81,440519.2178,-1.003692627,-0.02989196777,0.01577758789
2018-09-06 10:04:52.054 -0400,82,440519.2347,-1.004699707,-0.03184509277,0.01922607422
2018-09-06 10:04:52.073 -0400,83,440519.2515,-1.004180908,-0.03184509277,0.01577758789
2018-09-06 10:04:52.089 -0400,84,440519.2684,-1.002685547,-0.03283691406,0.01431274414
2018-09-06 10:04:52.123 -0400,85,440519.2853,-1.005187988,-0.03430175781,0.01971435547
2018-09-06 10:04:52.133 -0400,86,440519.3021,-1.003799438,-0.03135681152,0.02861022949
2018-09-06 10:04:52.146 -0400,87,440519.319,-1.005752563,-0.03135681152,0.02661132813
2018-09-06 10:04:52.155 -0400,88,440519.3359,-1.004211426,-0.03233337402,0.01922607422
2018-09-06 10:04:52.175 -0400,89,440519.3527,-1.00617981,-0.0259552002,0.0167388916
2018-09-06 10:04:52.189 -0400,90,440519.3696,-1.005203247,-0.02644348145,0.01872253418
2018-09-06 10:04:52.208 -0400,91,440519.3865,-1.004257202,-0.02496337891,0.0221862793
2018-09-06 10:04:52.223 -0400,92,440519.4033,-1.003829956,-0.02349853516,0.03007507324
2018-09-06 10:04:52.242 -0400,93,440519.4202,-1.006286621,-0.02153015137,0.02906799316
2018-09-06 10:04:52.256 -0400,94,440519.4371,-1.004318237,-0.02104187012,0.02760314941
2018-09-06 10:04:52.276 -0400,95,440519.454,-1.00579834,-0.02153015137,0.02906799316
2018-09-06 10:04:52.291 -0400,96,440519.4708,-1.005874634,-0.01564025879,0.03598022461
2018-09-06 10:04:52.318 -0400,97,440519.4877,-1.004974365,-0.01513671875,0.04534912109
2018-09-06 10:04:52.355 -0400,98,440519.5046,-1.0050354,-0.01513671875,0.05274963379
2018-09-06 10:04:52.357 -0400,99,440519.5215,-1.005462646,-0.01612854004,0.04583740234
2018-09-06 10:04:52.361 -0400,100,440519.5383,-1.003387451,-0.02250671387,0.0350189209
2018-09-06 10:04:52.377 -0400,101,440519.5552,-1.006790161,-0.02153015137,0.03004455566
2018-09-06 10:04:52.392 -0400,102,440519.5721,-1.005371094,-0.02053833008,0.03598022461
2018-09-06 10:04:52.410 -0400,103,440519.5889,-1.005432129,-0.02299499512,0.04386901855
2018-09-06 10:04:52.426 -0400,104,440519.6058,-1.00730896,-0.0259552002,0.03448486328
2018-09-06 10:04:52.444 -0400,105,440519.6227,-1.005249023,-0.02398681641,0.02217102051
2018-09-06 10:04:52.459 -0400,106,440519.6395,-1.006195068,-0.0269317627,0.01921081543
2018-09-06 10:04:52.478 -0400,107,440519.6564,-1.005310059,-0.02349853516,0.0295715332
2018-09-06 10:04:52.493 -0400,108,440519.6733,-1.004379272,-0.02250671387,0.03549194336
2018-09-06 10:04:52.512 -0400,109,440519.6901,-1.004806519,-0.02398681641,0.0285949707
2018-09-06 10:04:52.526 -0400,110,440519.707,-1.006256104,-0.01612854004,0.02215576172
2018-09-06 10:04:52.546 -0400,111,440519.7239,-1.005767822,-0.01760864258,0.02365112305
2018-09-06 10:04:52.560 -0400,112,440519.7408,-1.003829956,-0.01710510254,0.02711486816
2018-09-06 10:04:52.580 -0400,113,440519.7576,-1.004302979,-0.01416015625,0.02415466309
2018-09-06 10:04:52.594 -0400,114,440519.7745,-1.0052948,-0.01219177246,0.02365112305
2018-09-06 10:04:52.613 -0400,115,440519.7914,-1.003799438,-0.01318359375,0.0231628418
2018-09-06 10:04:52.628 -0400,116,440519.8082,-1.007278442,-0.01515197754,0.02659606934
2018-09-06 10:04:52.648 -0400,117,440519.8251,-1.00239563,-0.01219177246,0.03057861328
2018-09-06 10:04:52.661 -0400,118,440519.8419,-1.005401611,-0.005813598633,0.03598022461
2018-09-06 10:04:52.681 -0400,119,440519.8588,-1.00692749,-0.002365112305,0.0399017334
2018-09-06 10:04:52.696 -0400,120,440519.8757,-1.003463745,-0.005310058594,0.03796386719
2018-09-06 10:04:52.714 -0400,121,440519.8925,-1.004425049,-0.007278442383,0.03648376465
2018-09-06 10:04:52.729 -0400,122,440519.9094,-1.003936768,-0.003845214844,0.03598022461
2018-09-06 10:04:52.748 -0400,123,440519.9263,-1.00592041,-0.005310058594,0.0379486084
2018-09-06 10:04:52.763 -0400,124,440519.9432,-1.004852295,-0.006301879883,0.02809143066
2018-09-06 10:04:52.782 -0400,125,440519.96,-1.007263184,-0.01072692871,0.02313232422
2018-09-06 10:04:52.796 -0400,126,440519.9769,-1.005767822,-0.013671875,0.02265930176
2018-09-06 10:04:52.864 -0400,127,440519.9938,-1.004348755,-0.01219177246,0.03007507324
2018-09-06 10:04:52.868 -0400,128,440520.0107,-1.00289917,-0.01318359375,0.03353881836
2018-09-06 10:04:52.870 -0400,129,440520.0275,-1.005401611,-0.009735107422,0.03695678711
2018-09-06 10:04:52.872 -0400,130,440520.0444,-1.00592041,-0.008270263672,0.03991699219
2018-09-06 10:04:52.888 -0400,131,440520.0612,-1.00541687,-0.01121520996,0.03942871094
2018-09-06 10:04:52.901 -0400,132,440520.0781,-1.003921509,-0.01121520996,0.03648376465
2018-09-06 10:04:52.917 -0400,133,440520.095,-1.006408691,-0.01170349121,0.04040527344
2018-09-06 10:04:52.931 -0400,134,440520.1118,-1.005508423,-0.009735107422,0.04830932617
2018-09-06 10:04:52.951 -0400,135,440520.1287,-1.005447388,-0.01416015625,0.04386901855
2018-09-06 10:04:52.965 -0400,136,440520.1456,-1.005386353,-0.01318359375,0.03598022461
2018-09-06 10:04:52.985 -0400,137,440520.1624,-1.004333496,-0.0126953125,0.02661132813
2018-09-06 10:04:52.999 -0400,138,440520.1793,-1.004379272,-0.009246826172,0.03153991699
2018-09-06 10:04:53.019 -0400,139,440520.1962,-1.005447388,-0.009735107422,0.04190063477
2018-09-06 10:04:53.032 -0400,140,440520.2131,-1.004989624,-0.01022338867,0.04585266113
2018-09-06 10:04:53.052 -0400,141,440520.2299,-1.00491333,-0.008270263672,0.03646850586
2018-09-06 10:04:53.066 -0400,142,440520.2468,-1.004837036,-0.004837036133,0.02561950684
2018-09-06 10:04:53.086 -0400,143,440520.2637,-1.005813599,-0.002380371094,0.02462768555
2018-09-06 10:04:53.101 -0400,144,440520.2805,-1.005889893,-0.001876831055,0.03350830078
2018-09-06 10:04:53.120 -0400,145,440520.2974,-1.006896973,-0.002365112305,0.03645324707
2018-09-06 10:04:53.134 -0400,146,440520.3143,-1.005447388,-0.002853393555,0.04040527344
2018-09-06 10:04:53.153 -0400,147,440520.3311,-1.003967285,-0.003845214844,0.03894042969
2018-09-06 10:04:53.168 -0400,148,440520.348,-1.003982544,-0.009246826172,0.0433807373
2018-09-06 10:04:53.187 -0400,149,440520.3649,-1.005004883,-0.009246826172,0.04731750488
2018-09-06 10:04:53.201 -0400,150,440520.3817,-1.005020142,-0.01170349121,0.04978942871
2018-09-06 10:04:53.220 -0400,151,440520.3986,-1.005508423,-0.007766723633,0.04879760742
2018-09-06 10:04:53.235 -0400,152,440520.4155,-1.002975464,-0.007278442383,0.03944396973
2018-09-06 10:04:53.254 -0400,153,440520.4324,-1.005371094,-0.008270263672,0.03202819824
2018-09-06 10:04:53.268 -0400,154,440520.4492,-1.00239563,-0.01121520996,0.03009033203
2018-09-06 10:04:53.288 -0400,155,440520.4661,-1.006378174,-0.01072692871,0.03547668457
2018-09-06 10:04:53.303 -0400,156,440520.483,-1.003952026,-0.01022338867,0.03944396973
2018-09-06 10:04:53.346 -0400,157,440520.4999,-1.002944946,-0.01022338867,0.03747558594
2018-09-06 10:04:53.348 -0400,158,440520.5167,-1.005386353,-0.006790161133,0.03302001953
2018-09-06 10:04:53.357 -0400,159,440520.5336,-1.003875732,-0.006301879883,0.0295715332
2018-09-06 10:04:53.370 -0400,160,440520.5505,-1.006896973,-0.004821777344,0.03596496582
2018-09-06 10:04:53.390 -0400,161,440520.5673,-1.00541687,-0.006301879883,0.03646850586
2018-09-06 10:04:53.404 -0400,162,440520.5842,-1.004379272,-0.01268005371,0.03352355957
2018-09-06 10:04:53.423 -0400,163,440520.6011,-1.005340576,-0.005325317383,0.02709960938
2018-09-06 10:04:53.437 -0400,164,440520.6179,-1.006835938,-0.0009002685547,0.02757263184
2018-09-06 10:04:53.457 -0400,165,440520.6348,-1.005905151,0.002517700195,0.03300476074
2018-09-06 10:04:53.471 -0400,166,440520.6517,-1.006393433,0.003509521484,0.03201293945
2018-09-06 10:04:53.490 -0400,167,440520.6685,-1.001983643,0.004486083984,0.03550720215
2018-09-06 10:04:53.505 -0400,168,440520.6854,-1.005935669,0.006454467773,0.03596496582
2018-09-06 10:04:53.524 -0400,169,440520.7023,-1.005462646,0.003997802734,0.03843688965
2018-09-06 10:04:53.538 -0400,170,440520.7191,-1.005447388,0.005966186523,0.03744506836
2018-09-06 10:04:53.557 -0400,171,440520.736,-1.006973267,0.005966186523,0.04286193848
2018-09-06 10:04:53.572 -0400,172,440520.7529,-1.004043579,0.003997802734,0.04585266113
2018-09-06 10:04:53.592 -0400,173,440520.7698,-1.003555298,0.002532958984,0.04733276367
2018-09-06 10:04:53.606 -0400,174,440520.7866,-1.007492065,0.007934570313,0.04434204102
2018-09-06 10:04:53.625 -0400,175,440520.8035,-1.005523682,0.01039123535,0.04385375977
2018-09-06 10:04:53.640 -0400,176,440520.8204,-1.005554199,0.01481628418,0.04582214355
2018-09-06 10:04:53.659 -0400,177,440520.8372,-1.006561279,0.01776123047,0.04878234863
2018-09-06 10:04:53.673 -0400,178,440520.8541,-1.005615234,0.0221862793,0.05075073242
2018-09-06 10:04:53.692 -0400,179,440520.871,-1.004623413,0.02021789551,0.05027770996
2018-09-06 10:04:53.708 -0400,180,440520.8878,-1.005584717,0.01481628418,0.04928588867
2018-09-06 10:04:53.727 -0400,181,440520.9047,-1.004547119,0.009399414063,0.04534912109
2018-09-06 10:04:53.741 -0400,182,440520.9216,-1.003982544,0.008911132813,0.0379486084
2018-09-06 10:04:53.760 -0400,183,440520.9384,-1.004455566,0.006942749023,0.03598022461
2018-09-06 10:04:53.775 -0400,184,440520.9553,-1.005935669,0.006942749023,0.03547668457
2018-09-06 10:04:53.794 -0400,185,440520.9722,-1.006408691,0.009887695313,0.03300476074
2018-09-06 10:04:53.816 -0400,186,440520.989,-1.004928589,0.0108795166,0.03202819824
2018-09-06 10:04:53.843 -0400,187,440521.0059,-1.005401611,0.008911132813,0.0305480957
2018-09-06 10:04:53.845 -0400,188,440521.0228,-1.003875732,0.0128326416,0.02365112305
2018-09-06 10:04:53.863 -0400,189,440521.0397,-1.003417969,0.01234436035,0.02661132813
2018-09-06 10:04:53.876 -0400,190,440521.0565,-1.006881714,0.0128326416,0.02954101563
2018-09-06 10:04:53.895 -0400,191,440521.0734,-1.005371094,0.0108795166,0.02560424805
2018-09-06 10:04:53.910 -0400,192,440521.0903,-1.00340271,0.01382446289,0.02513122559
2018-09-06 10:04:53.929 -0400,193,440521.1071,-1.006362915,0.0128326416,0.0260925293
2018-09-06 10:04:53.943 -0400,194,440521.124,-1.006332397,0.008422851563,0.02363586426
2018-09-06 10:04:53.963 -0400,195,440521.1409,-1.004882813,0.01037597656,0.02659606934
2018-09-06 10:04:53.977 -0400,196,440521.1577,-1.007888794,0.009887695313,0.03298950195
2018-09-06 10:04:53.997 -0400,197,440521.1746,-1.005477905,0.01628112793,0.03744506836
2018-09-06 10:04:54.011 -0400,198,440521.1915,-1.006484985,0.01382446289,0.03941345215
2018-09-06 10:04:54.030 -0400,199,440521.2083,-1.005447388,0.008911132813,0.03498840332
2018-09-06 10:04:54.045 -0400,200,440521.2252,-1.005401611,0.005966186523,0.0305480957
2018-09-06 10:04:54.064 -0400,201,440521.2421,-1.005340576,0.004486083984,0.0241394043
2018-09-06 10:04:54.078 -0400,202,440521.259,-1.006332397,0.006454467773,0.02412414551
2018-09-06 10:04:54.098 -0400,203,440521.2758,-1.003875732,0.005966186523,0.02464294434
2018-09-06 10:04:54.116 -0400,204,440521.2927,-1.004882813,0.003021240234,0.02857971191
2018-09-06 10:04:54.132 -0400,205,440521.3096,-1.003890991,0.004486083984,0.02857971191
2018-09-06 10:04:54.146 -0400,206,440521.3264,-1.004867554,0.003997802734,0.02709960938
2018-09-06 10:04:54.165 -0400,207,440521.3433,-1.005325317,0.008911132813,0.02018737793
2018-09-06 10:04:54.180 -0400,208,440521.3602,-1.004821777,0.0118560791,0.01870727539
2018-09-06 10:04:54.199 -0400,209,440521.377,-1.004348755,0.01332092285,0.02069091797
2018-09-06 10:04:54.214 -0400,210,440521.3939,-1.005355835,0.01037597656,0.02363586426
2018-09-06 10:04:54.232 -0400,211,440521.4108,-1.006362915,0.0128326416,0.02510070801
2018-09-06 10:04:54.247 -0400,212,440521.4276,-1.003845215,0.01037597656,0.01969909668
2018-09-06 10:04:54.266 -0400,213,440521.4445,-1.00630188,0.009399414063,0.01968383789
2018-09-06 10:04:54.280 -0400,214,440521.4614,-1.005813599,0.006942749023,0.02018737793
2018-09-06 10:04:54.302 -0400,215,440521.4782,-1.004394531,0.006942749023,0.02857971191
2018-09-06 10:04:54.318 -0400,216,440521.4951,-1.002944946,0.003509521484,0.03303527832
2018-09-06 10:04:54.347 -0400,217,440521.512,-1.005432129,0.003509521484,0.03547668457
2018-09-06 10:04:54.349 -0400,218,440521.5289,-1.005386353,0.003509521484,0.02955627441
2018-09-06 10:04:54.368 -0400,219,440521.5457,-1.004882813,0.004974365234,0.02906799316
2018-09-06 10:04:54.382 -0400,220,440521.5626,-1.005401611,0.006454467773,0.03004455566
2018-09-06 10:04:54.402 -0400,221,440521.5795,-1.004394531,0.006942749023,0.02809143066
2018-09-06 10:04:54.416 -0400,222,440521.5963,-1.003326416,0.003509521484,0.01971435547
2018-09-06 10:04:54.435 -0400,223,440521.6132,-1.0050354,-0.004348754883,-0.008895874023
2018-09-06 10:04:54.449 -0400,224,440521.6301,-1.004379272,-0.001403808594,-0.02911376953
2018-09-06 10:04:54.469 -0400,225,440521.6469,-1.005706787,0.01036071777,-0.05133056641
2018-09-06 10:04:54.483 -0400,226,440521.6638,-1.006088257,0.02705383301,-0.07008361816
2018-09-06 10:04:54.502 -0400,227,440521.6807,-1.004425049,0.02114868164,-0.09127807617
2018-09-06 10:04:54.517 -0400,228,440521.6975,-1.003097534,-0.0009460449219,-0.125289917
2018-09-06 10:04:54.536 -0400,229,440521.7144,-1.000228882,-0.01174926758,-0.110458374
2018-09-06 10:04:54.550 -0400,230,440521.7313,-0.9997253418,-0.06530761719,-0.1533355713
2018-09-06 10:04:54.570 -0400,231,440521.7482,-0.995300293,-0.0662689209,-0.09213256836
2018-09-06 10:04:54.584 -0400,232,440521.765,-0.987411499,-0.04122924805,-0.1019439697
2018-09-06 10:04:54.604 -0400,233,440521.7819,-1.018341064,-0.01467895508,-0.06523132324
2018-09-06 10:04:54.618 -0400,234,440521.7988,-0.9956665039,-0.02207946777,-0.1217498779
2018-09-06 10:04:54.637 -0400,235,440521.8156,-0.9908294678,-0.02749633789,-0.1680755615
2018-09-06 10:04:54.652 -0400,236,440521.8325,-1.015518188,-0.04168701172,-0.03855895996
2018-09-06 10:04:54.671 -0400,237,440521.8494,-0.9955749512,0.1396179199,0.165222168
2018-09-06 10:04:54.685 -0400,238,440521.8662,-0.9491729736,0.06639099121,0.0620880127
2018-09-06 10:04:54.705 -0400,239,440521.8831,-1.003875732,0.009841918945,-0.09471130371
2018-09-06 10:04:54.719 -0400,240,440521.9,-1.033203125,0.1022338867,0.02432250977
2018-09-06 10:04:54.738 -0400,241,440521.9168,-0.994644165,0.0251159668,0.03408813477
2018-09-06 10:04:54.753 -0400,242,440521.9337,-1.002670288,0.09053039551,0.2658081055
2018-09-06 10:04:54.772 -0400,243,440521.9506,-1.004013062,0.08514404297,0.3106842041
2018-09-06 10:04:54.787 -0400,244,440521.9674,-0.9982910156,0.09593200684,0.2697906494
2018-09-06 10:04:54.816 -0400,245,440521.9843,-1.005142212,0.1327514648,0.1937408447
2018-09-06 10:04:54.844 -0400,246,440522.0012,-1.010787964,0.08656311035,0.1769561768
2018-09-06 10:04:54.846 -0400,247,440522.0181,-1.004623413,-0.06126403809,0.1963195801
2018-09-06 10:04:54.854 -0400,248,440522.0349,-0.9984741211,-0.1088867188,0.2432556152
2018-09-06 10:04:54.873 -0400,249,440522.0518,-0.9982910156,-0.0877532959,0.2738189697
2018-09-06 10:04:54.888 -0400,250,440522.0687,-1.003753662,-0.01507568359,0.2535095215
2018-09-06 10:04:54.907 -0400,251,440522.0855,-1.001739502,0.02270507813,0.1770629883
2018-09-06 10:04:54.922 -0400,252,440522.1024,-1.00038147,-0.01707458496,0.1460266113
2018-09-06 10:04:54.941 -0400,253,440522.1193,-1.006896973,-0.03228759766,0.1647186279
2018-09-06 10:04:54.955 -0400,254,440522.1361,-0.9998168945,-0.07308959961,0.09623718262
2018-09-06 10:04:54.974 -0400,255,440522.153,-0.993347168,-0.05491638184,0.08395385742
2018-09-06 10:04:54.989 -0400,256,440522.1699,-1.012390137,-0.06916809082,0.06800842285
2018-09-06 10:04:55.009 -0400,257,440522.1867,-1.000411987,-0.1217041016,0.1253509521
2018-09-06 10:04:55.023 -0400,258,440522.2036,-0.9965057373,-0.06370544434,0.2289428711
2018-09-06 10:04:55.042 -0400,259,440522.2205,-1.007644653,-0.0302734375,0.3116912842
2018-09-06 10:04:55.057 -0400,260,440522.2373,-1.004364014,0.02471923828,0.3131713867
2018-09-06 10:04:55.076 -0400,261,440522.2542,-1.002075195,0.03303527832,0.214050293
2018-09-06 10:04:55.090 -0400,262,440522.2711,-1.002304077,0.03399658203,0.1232910156
2018-09-06 10:04:55.110 -0400,263,440522.288,-1.008483887,0.04577636719,0.09214782715
2018-09-06 10:04:55.125 -0400,264,440522.3048,-1.003036499,-0.01171875,-0.009857177734
2018-09-06 10:04:55.144 -0400,265,440522.3217,-0.9942169189,-0.03135681152,0.002059936523
2018-09-06 10:04:55.158 -0400,266,440522.3386,-1.000152588,-0.05491638184,0.0725402832
2018-09-06 10:04:55.177 -0400,267,440522.3554,-0.9991760254,-0.06326293945,0.07551574707
2018-09-06 10:04:55.192 -0400,268,440522.3723,-1.000015259,-0.06425476074,0.05874633789
2018-09-06 10:04:55.211 -0400,269,440522.3892,-0.9956359863,-0.06967163086,0.00749206543
2018-09-06 10:04:55.225 -0400,270,440522.406,-1.00302124,-0.08934020996,-0.0453338623
2018-09-06 10:04:55.244 -0400,271,440522.4229,-1.004516602,-0.07313537598,-0.04881286621
2018-09-06 10:04:55.259 -0400,272,440522.4398,-1.001296997,-0.07214355469,-0.02017211914
2018-09-06 10:04:55.278 -0400,273,440522.4566,-1.002059937,-0.05935668945,0.006439208984
2018-09-06 10:04:55.293 -0400,274,440522.4735,-0.9996185303,-0.06083679199,0.009414672852
2018-09-06 10:04:55.317 -0400,275,440522.4904,-1.001083374,-0.06034851074,0.008911132813
2018-09-06 10:04:55.346 -0400,276,440522.5073,-1.003662109,-0.05541992188,0.02122497559
2018-09-06 10:04:55.348 -0400,277,440522.5241,-1.001937866,-0.0505065918,0.04885864258
2018-09-06 10:04:55.361 -0400,278,440522.541,-1.003768921,-0.03869628906,0.08631896973
2018-09-06 10:04:55.379 -0400,279,440522.5579,-1.004440308,-0.04066467285,0.1094970703
2018-09-06 10:04:55.394 -0400,280,440522.5747,-1.002731323,-0.05982971191,0.0883026123
2018-09-06 10:04:55.413 -0400,281,440522.5916,-1.003723145,-0.07752990723,0.03553771973
2018-09-06 10:04:55.428 -0400,282,440522.6085,-1.001373291,-0.09080505371,-0.00634765625
2018-09-06 10:04:55.447 -0400,283,440522.6253,-1.001159668,-0.07214355469,-0.03791809082
2018-09-06 10:04:55.462 -0400,284,440522.6422,-1.000198364,-0.04905700684,-0.04187011719
2018-09-06 10:04:55.481 -0400,285,440522.6591,-1.005905151,-0.02597045898,-0.01579284668
2018-09-06 10:04:55.495 -0400,286,440522.6759,-1.00579834,-0.006790161133,0.0241394043
2018-09-06 10:04:55.514 -0400,287,440522.6928,-1.006591797,-0.004333496094,0.05964660645
2018-09-06 10:04:55.529 -0400,288,440522.7097,-1.005264282,-0.006774902344,0.07740783691
2018-09-06 10:04:55.548 -0400,289,440522.7265,-1.00491333,-0.009231567383,0.09565734863
2018-09-06 10:04:55.562 -0400,290,440522.7434,-1.00642395,9.16E-05,0.09712219238
2018-09-06 10:04:55.582 -0400,291,440522.7603,-1.005859375,0.005493164063,0.08529663086
2018-09-06 10:04:55.596 -0400,292,440522.7772,-1.005279541,0.0005798339844,0.07789611816
2018-09-06 10:04:55.616 -0400,293,440522.794,-1.003616333,-0.01611328125,0.06115722656
2018-09-06 10:04:55.630 -0400,294,440522.8109,-1.003921509,-0.03625488281,0.04586791992
2018-09-06 10:04:55.649 -0400,295,440522.8278,-1.003372192,-0.05541992188,0.04489135742
2018-09-06 10:04:55.664 -0400,296,440522.8446,-1.003417969,-0.05099487305,0.04933166504
2018-09-06 10:04:55.683 -0400,297,440522.8615,-1.004989624,-0.04362487793,0.0572052002
2018-09-06 10:04:55.697 -0400,298,440522.8784,-1.002029419,-0.04754638672,0.05920410156
2018-09-06 10:04:55.717 -0400,299,440522.8952,-1.003387451,-0.0617980957,0.04835510254
2018-09-06 10:04:55.732 -0400,300,440522.9121,-1.000869751,-0.06327819824,0.04344177246
2018-09-06 10:04:55.751 -0400,301,440522.929,-1.001922607,-0.05296325684,0.04786682129
2018-09-06 10:04:55.765 -0400,302,440522.9458,-1.005020142,-0.04214477539,0.06115722656
2018-09-06 10:04:55.784 -0400,303,440522.9627,-1.003173828,-0.03576660156,0.07299804688
2018-09-06 10:04:55.799 -0400,304,440522.9796,-1.003250122,-0.03034973145,0.08088684082
2018-09-06 10:04:55.842 -0400,305,440522.9965,-1.005142212,-0.02348327637,0.06854248047
2018-09-06 10:04:55.844 -0400,306,440523.0133,-1.004150391,-0.0166015625,0.06509399414
2018-09-06 10:04:55.852 -0400,307,440523.0302,-1.005111694,-0.01759338379,0.06410217285
2018-09-06 10:04:55.866 -0400,308,440523.0471,-1.004165649,-0.02348327637,0.07002258301
2018-09-06 10:04:55.886 -0400,309,440523.0639,-1.002166748,-0.02937316895,0.06857299805
2018-09-06 10:04:55.900 -0400,310,440523.0808,-1.005615234,-0.03036499023,0.06903076172
2018-09-06 10:04:55.920 -0400,311,440523.0977,-1.004089355,-0.02742004395,0.06213378906
2018-09-06 10:04:55.935 -0400,312,440523.1145,-1.006622314,-0.02494812012,0.07000732422
2018-09-06 10:04:55.953 -0400,313,440523.1314,-1.002716064,-0.02102661133,0.07250976563
2018-09-06 10:04:55.968 -0400,314,440523.1483,-1.005157471,-0.02249145508,0.07002258301
2018-09-06 10:04:55.987 -0400,315,440523.1651,-1.004577637,-0.02397155762,0.05966186523
2018-09-06 10:04:56.003 -0400,316,440523.182,-1.004058838,-0.02691650391,0.05819702148
2018-09-06 10:04:56.021 -0400,317,440523.1989,-1.004989624,-0.03379821777,0.05375671387
2018-09-06 10:04:56.036 -0400,318,440523.2157,-1.004394531,-0.04411315918,0.04487609863
2018-09-06 10:04:56.055 -0400,319,440523.2326,-1.002838135,-0.05247497559,0.03898620605
2018-09-06 10:04:56.074 -0400,320,440523.2495,-1.004852295,-0.05197143555,0.04389953613
2018-09-06 10:04:56.089 -0400,321,440523.2664,-1.003387451,-0.04216003418,0.04193115234
2018-09-06 10:04:56.102 -0400,322,440523.2832,-1.005828857,-0.03135681152,0.03549194336
2018-09-06 10:04:56.122 -0400,323,440523.3001,-1.003799438,-0.02841186523,0.0276184082
2018-09-06 10:04:56.137 -0400,324,440523.317,-1.005859375,-0.02250671387,0.03646850586
2018-09-06 10:04:56.156 -0400,325,440523.3338,-1.004943848,-0.03036499023,0.04733276367
2018-09-06 10:04:56.170 -0400,326,440523.3507,-1.004516602,-0.03968811035,0.05868530273
2018-09-06 10:04:56.189 -0400,327,440523.3676,-1.002563477,-0.04508972168,0.06216430664
2018-09-06 10:04:56.204 -0400,328,440523.3844,-1.005050659,-0.04508972168,0.06460571289
2018-09-06 10:04:56.224 -0400,329,440523.4013,-1.003051758,-0.04656982422,0.06265258789
2018-09-06 10:04:56.238 -0400,330,440523.4182,-1.003036499,-0.03723144531,0.05770874023
2018-09-06 10:04:56.256 -0400,331,440523.435,-1.003005981,-0.03527832031,0.05229187012
2018-09-06 10:04:56.271 -0400,332,440523.4519,-1.006057739,-0.02593994141,0.06163024902
2018-09-06 10:04:56.291 -0400,333,440523.4688,-1.002639771,-0.03330993652,0.06758117676
2018-09-06 10:04:56.305 -0400,334,440523.4857,-1.001678467,-0.0382232666,0.07153320313
2018-09-06 10:04:56.345 -0400,335,440523.5025,-1.005523682,-0.03871154785,0.06114196777
2018-09-06 10:04:56.346 -0400,336,440523.5194,-1.005401611,-0.03282165527,0.04486083984
2018-09-06 10:04:56.359 -0400,337,440523.5363,-1.005386353,-0.03184509277,0.0424041748
2018-09-06 10:04:56.372 -0400,338,440523.5532,-1.00390625,-0.02398681641,0.03994750977
2018-09-06 10:04:56.391 -0400,339,440523.57,-1.006484985,-0.02299499512,0.05323791504
2018-09-06 10:04:56.406 -0400,340,440523.5869,-1.004043579,-0.02987670898,0.05671691895
2018-09-06 10:04:56.426 -0400,341,440523.6038,-1.004089355,-0.02839660645,0.06213378906
2018-09-06 10:04:56.440 -0400,342,440523.6206,-1.004989624,-0.03134155273,0.05276489258
2018-09-06 10:04:56.459 -0400,343,440523.6375,-1.003036499,-0.02742004395,0.05426025391
2018-09-06 10:04:56.474 -0400,344,440523.6544,-1.004547119,-0.02397155762,0.05621337891
2018-09-06 10:04:56.493 -0400,345,440523.6712,-1.005020142,-0.01956176758,0.05374145508
2018-09-06 10:04:56.507 -0400,346,440523.6881,-1.003448486,-0.015625,0.0414276123
2018-09-06 10:04:56.526 -0400,347,440523.705,-1.004516602,-0.005310058594,0.04782104492
2018-09-06 10:04:56.541 -0400,348,440523.7218,-1.005050659,-0.01316833496,0.05522155762
2018-09-06 10:04:56.560 -0400,349,440523.7387,-1.005477905,-0.01759338379,0.04782104492
2018-09-06 10:04:56.575 -0400,350,440523.7556,-1.002044678,-0.01661682129,0.048828125
2018-09-06 10:04:56.594 -0400,351,440523.7724,-1.006011963,-0.02496337891,0.05522155762
2018-09-06 10:04:56.609 -0400,352,440523.7893,-1.003494263,-0.02987670898,0.05130004883
2018-09-06 10:04:56.628 -0400,353,440523.8062,-1.004425049,-0.02593994141,0.04289245605
2018-09-06 10:04:56.642 -0400,354,440523.8231,-1.004882813,-0.02839660645,0.03993225098
2018-09-06 10:04:56.661 -0400,355,440523.8399,-1.002929688,-0.03282165527,0.04241943359
2018-09-06 10:04:56.676 -0400,356,440523.8568,-1.005447388,-0.0288848877,0.04782104492
2018-09-06 10:04:56.695 -0400,357,440523.8737,-1.004959106,-0.03479003906,0.05079650879
2018-09-06 10:04:56.709 -0400,358,440523.8905,-1.003509521,-0.02987670898,0.05178833008
2018-09-06 10:04:56.729 -0400,359,440523.9074,-1.003082275,-0.0279083252,0.05967712402
2018-09-06 10:04:56.744 -0400,360,440523.9243,-1.003128052,-0.02642822266,0.06559753418
2018-09-06 10:04:56.763 -0400,361,440523.9411,-1.005172729,-0.01808166504,0.07150268555
2018-09-06 10:04:56.777 -0400,362,440523.958,-1.004135132,-0.02053833008,0.06558227539
2018-09-06 10:04:56.796 -0400,363,440523.9749,-1.002532959,-0.02496337891,0.05278015137
2018-09-06 10:04:56.817 -0400,364,440523.9917,-1.00553894,-0.02102661133,0.05670166016
2018-09-06 10:04:56.845 -0400,365,440524.0086,-1.003067017,-0.03282165527,0.05969238281
2018-09-06 10:04:56.847 -0400,366,440524.0255,-1.002029419,-0.03871154785,0.0552520752
2018-09-06 10:04:56.864 -0400,367,440524.0424,-1.004562378,-0.03330993652,0.06115722656
2018-09-06 10:04:56.879 -0400,368,440524.0592,-1.003051758,-0.02987670898,0.05722045898
2018-09-06 10:04:56.898 -0400,369,440524.0761,-1.002593994,-0.03134155273,0.06117248535
2018-09-06 10:04:56.912 -0400,370,440524.093,-1.003616333,-0.03134155273,0.06658935547
2018-09-06 10:04:56.931 -0400,371,440524.1098,-1.003616333,-0.02445983887,0.06362915039
2018-09-06 10:04:56.946 -0400,372,440524.1267,-1.003082275,-0.02691650391,0.05870056152
2018-09-06 10:04:56.965 -0400,373,440524.1436,-1.002563477,-0.02593994141,0.0552520752
2018-09-06 10:04:56.979 -0400,374,440524.1604,-1.007019043,-0.02445983887,0.05865478516
2018-09-06 10:04:56.999 -0400,375,440524.1773,-1.003555298,-0.02496337891,0.05671691895
2018-09-06 10:04:57.014 -0400,376,440524.1942,-1.003494263,-0.03330993652,0.05227661133
2018-09-06 10:04:57.034 -0400,377,440524.211,-1.003509521,-0.03182983398,0.05375671387
2018-09-06 10:04:57.047 -0400,378,440524.2279,-1.002548218,-0.03282165527,0.05673217773
2018-09-06 10:04:57.066 -0400,379,440524.2448,-1.006546021,-0.02839660645,0.06163024902
2018-09-06 10:04:57.081 -0400,380,440524.2616,-1.005111694,-0.0279083252,0.06755065918
2018-09-06 10:04:57.100 -0400,381,440524.2785,-1.004135132,-0.02691650391,0.06707763672
2018-09-06 10:04:57.114 -0400,382,440524.2954,-1.003585815,-0.02299499512,0.05868530273
2018-09-06 10:04:57.134 -0400,383,440524.3123,-1.00163269,-0.02742004395,0.06265258789
2018-09-06 10:04:57.149 -0400,384,440524.3291,-1.004577637,-0.02937316895,0.06312561035
2018-09-06 10:04:57.168 -0400,385,440524.346,-1.005096436,-0.03182983398,0.06657409668
2018-09-06 10:04:57.182 -0400,386,440524.3629,-1.004058838,-0.03330993652,0.06016540527
2018-09-06 10:04:57.201 -0400,387,440524.3797,-1.004089355,-0.02937316895,0.06213378906
2018-09-06 10:04:57.216 -0400,388,440524.3966,-1.003616333,-0.02445983887,0.06411743164
2018-09-06 10:04:57.236 -0400,389,440524.4135,-1.002166748,-0.01759338379,0.06462097168
2018-09-06 10:04:57.250 -0400,390,440524.4303,-1.005615234,-0.01611328125,0.06408691406
2018-09-06 10:04:57.269 -0400,391,440524.4472,-1.002120972,-0.02593994141,0.06265258789
2018-09-06 10:04:57.283 -0400,392,440524.4641,-1.005020142,-0.02642822266,0.05621337891
2018-09-06 10:04:57.303 -0400,393,440524.4809,-1.003631592,-0.02740478516,0.06559753418
2018-09-06 10:04:57.318 -0400,394,440524.4978,-1.002182007,-0.03231811523,0.07153320313
2018-09-06 10:04:57.346 -0400,395,440524.5147,-1.005615234,-0.03182983398,0.07002258301
2018-09-06 10:04:57.352 -0400,396,440524.5315,-1.004196167,-0.02740478516,0.07496643066
2018-09-06 10:04:57.370 -0400,397,440524.5484,-1.003204346,-0.02445983887,0.07398986816
2018-09-06 10:04:57.384 -0400,398,440524.5653,-1.003173828,-0.02937316895,0.07151794434
2018-09-06 10:04:57.403 -0400,399,440524.5822,-1.004592896,-0.03036499023,0.06509399414
2018-09-06 10:04:57.418 -0400,400,440524.599,-1.005004883,-0.03036499023,0.05572509766
2018-09-06 10:04:57.438 -0400,401,440524.6159,-1.002532959,-0.02987670898,0.05328369141
2018-09-06 10:04:57.452 -0400,402,440524.6328,-1.00302124,-0.03085327148,0.05377197266
2018-09-06 10:04:57.471 -0400,403,440524.6496,-1.004516602,-0.0288848877,0.05473327637
2018-09-06 10:04:57.486 -0400,404,440524.6665,-1.005462646,-0.03674316406,0.05226135254
2018-09-06 10:04:57.505 -0400,405,440524.6834,-1.006011963,-0.0391998291,0.06065368652
2018-09-06 10:04:57.520 -0400,406,440524.7002,-1.005157471,-0.03477478027,0.07397460938
2018-09-06 10:04:57.539 -0400,407,440524.7171,-1.005752563,-0.03575134277,0.08679199219
2018-09-06 10:04:57.553 -0400,408,440524.734,-1.002883911,-0.03427124023,0.09716796875
2018-09-06 10:04:57.573 -0400,409,440524.7508,-1.003372192,-0.02543640137,0.09371948242
2018-09-06 10:04:57.587 -0400,410,440524.7677,-1.005722046,-0.02200317383,0.07939147949
2018-09-06 10:04:57.606 -0400,411,440524.7846,-1.005020142,-0.01365661621,0.05177307129
2018-09-06 10:04:57.621 -0400,412,440524.8015,-1.00289917,-0.01023864746,0.03106689453
2018-09-06 10:04:57.640 -0400,413,440524.8183,-1.005737305,-0.003845214844,0.01525878906
2018-09-06 10:04:57.654 -0400,414,440524.8352,-1.005233765,-0.01220703125,0.01625061035
2018-09-06 10:04:57.673 -0400,415,440524.8521,-1.003341675,-0.01956176758,0.02909851074
2018-09-06 10:04:57.688 -0400,416,440524.8689,-1.001998901,-0.02642822266,0.04736328125
2018-09-06 10:04:57.707 -0400,417,440524.8858,-1.003479004,-0.03233337402,0.04981994629
2018-09-06 10:04:57.722 -0400,418,440524.9027,-1.002029419,-0.03330993652,0.05328369141
2018-09-06 10:04:57.741 -0400,419,440524.9195,-1.004989624,-0.02937316895,0.05325317383
2018-09-06 10:04:57.756 -0400,420,440524.9364,-1.004074097,-0.02053833008,0.05868530273
2018-09-06 10:04:57.775 -0400,421,440524.9533,-1.004135132,-0.01708984375,0.0636138916
2018-09-06 10:04:57.789 -0400,422,440524.9701,-1.005096436,-0.01954650879,0.06163024902
2018-09-06 10:04:57.818 -0400,423,440524.987,-1.00567627,-0.02053833008,0.07347106934
2018-09-06 10:04:57.848 -0400,424,440525.0039,-1.0052948,-0.01365661621,0.08480834961
2018-09-06 10:04:57.850 -0400,425,440525.0207,-1.006332397,-0.01708984375,0.09121704102
2018-09-06 10:04:57.857 -0400,426,440525.0376,-1.005828857,-0.017578125,0.09024047852
2018-09-06 10:04:57.876 -0400,427,440525.0545,-1.004257202,-0.02642822266,0.08137512207
2018-09-06 10:04:57.891 -0400,428,440525.0714,-1.005233765,-0.03134155273,0.08186340332
2018-09-06 10:04:57.910 -0400,429,440525.0882,-1.004653931,-0.0391998291,0.07496643066
2018-09-06 10:04:57.924 -0400,430,440525.1051,-1.003646851,-0.04411315918,0.07350158691
2018-09-06 10:04:57.944 -0400,431,440525.122,-1.003067017,-0.05442810059,0.06660461426
2018-09-06 10:04:57.958 -0400,432,440525.1388,-1.00151062,-0.0608215332,0.06021118164
2018-09-06 10:04:57.977 -0400,433,440525.1557,-1.002471924,-0.06916809082,0.05921936035
2018-09-06 10:04:57.992 -0400,434,440525.1726,-1.001907349,-0.0750579834,0.0532989502
2018-09-06 10:04:58.011 -0400,435,440525.1894,-1.002883911,-0.07702636719,0.05181884766
2018-09-06 10:04:58.026 -0400,436,440525.2063,-1.003875732,-0.06376647949,0.04983520508
2018-09-06 10:04:58.046 -0400,437,440525.2232,-1.002426147,-0.06719970703,0.05378723145
2018-09-06 10:04:58.060 -0400,438,440525.24,-1.002334595,-0.0731048584,0.04541015625
2018-09-06 10:04:58.078 -0400,439,440525.2569,-1.000228882,-0.0834197998,0.03260803223
2018-09-06 10:04:58.094 -0400,440,440525.2738,-1.003067017,-0.09619140625,0.02174377441
2018-09-06 10:04:58.112 -0400,441,440525.2907,-1.001541138,-0.1084747314,0.02076721191
2018-09-06 10:04:58.126 -0400,442,440525.3075,-0.9966125488,-0.1114196777,0.02180480957
2018-09-06 10:04:58.146 -0400,443,440525.3244,-0.9995880127,-0.1074981689,0.02226257324
2018-09-06 10:04:58.162 -0400,444,440525.3413,-1.00163269,-0.0966796875,0.02766418457
2018-09-06 10:04:58.180 -0400,445,440525.3581,-0.9992980957,-0.09274291992,0.04150390625
2018-09-06 10:04:58.194 -0400,446,440525.375,-1.005340576,-0.08636474609,0.0552520752
2018-09-06 10:04:58.214 -0400,447,440525.3919,-0.9995269775,-0.0740814209,0.06269836426
2018-09-06 10:04:58.228 -0400,448,440525.4087,-1.000030518,-0.07113647461,0.06318664551
2018-09-06 10:04:58.248 -0400,449,440525.4256,-1.002456665,-0.07113647461,0.05871582031
2018-09-06 10:04:58.262 -0400,450,440525.4425,-1.002441406,-0.07554626465,0.05822753906
2018-09-06 10:04:58.281 -0400,451,440525.4593,-1.001037598,-0.06622314453,0.06317138672
2018-09-06 10:04:58.295 -0400,452,440525.4762,-1.002624512,-0.04557800293,0.07054138184
2018-09-06 10:04:58.317 -0400,453,440525.4931,-1.003204346,-0.0288848877,0.0754699707
2018-09-06 10:04:58.345 -0400,454,440525.5099,-1.004241943,-0.02348327637,0.07890319824
2018-09-06 10:04:58.350 -0400,455,440525.5268,-1.005340576,-0.02445983887,0.0922088623
2018-09-06 10:04:58.363 -0400,456,440525.5437,-1.001846313,-0.02543640137,0.08879089355
2018-09-06 10:04:58.382 -0400,457,440525.5606,-1.002120972,-0.02742004395,0.0616607666
2018-09-06 10:04:58.396 -0400,458,440525.5774,-1.003234863,-0.03184509277,0.02021789551
2018-09-06 10:04:58.416 -0400,459,440525.5943,-1.005447388,-0.03726196289,-0.007888793945
2018-09-06 10:04:58.431 -0400,460,440525.6112,-1.002471924,-0.03137207031,-0.01181030273
2018-09-06 10:04:58.450 -0400,461,440525.628,-1.002166748,-0.01908874512,0.006912231445
2018-09-06 10:04:58.464 -0400,462,440525.6449,-1.005279541,-0.004837036133,0.02069091797
2018-09-06 10:04:58.483 -0400,463,440525.6618,-1.003952026,7.63E-05,0.0369720459
2018-09-06 10:04:58.498 -0400,464,440525.6786,-1.001556396,0.004486083984,0.04290771484
2018-09-06 10:04:58.517 -0400,465,440525.6955,-1.006057739,-0.002365112305,0.052734375
2018-09-06 10:04:58.531 -0400,466,440525.7124,-1.002334595,-0.01856994629,0.08483886719
2018-09-06 10:04:58.551 -0400,467,440525.7292,-1.004318237,-0.03771972656,0.09370422363
2018-09-06 10:04:58.566 -0400,468,440525.7461,-1.003387451,-0.0411529541,0.1016082764
2018-09-06 10:04:58.585 -0400,469,440525.763,-1.002883911,-0.04360961914,0.1011199951
2018-09-06 10:04:58.599 -0400,470,440525.7799,-1.00038147,-0.03428649902,0.09324645996
2018-09-06 10:04:58.618 -0400,471,440525.7967,-1.003845215,-0.02052307129,0.08877563477
2018-09-06 10:04:58.633 -0400,472,440525.8136,-1.005996704,0.005981445313,0.10206604
2018-09-06 10:04:58.652 -0400,473,440525.8305,-1.004150391,0.02268981934,0.1124267578
2018-09-06 10:04:58.667 -0400,474,440525.8473,-1.007659912,0.03643798828,0.1148529053
2018-09-06 10:04:58.685 -0400,475,440525.8642,-1.003677368,0.03594970703,0.1089630127
2018-09-06 10:04:58.700 -0400,476,440525.8811,-1.005371094,0.03741455078,0.07540893555
2018-09-06 10:04:58.720 -0400,477,440525.8979,-1.003189087,0.004989624023,0.06114196777
2018-09-06 10:04:58.734 -0400,478,440525.9148,-1.008117676,-0.007766723633,0.06555175781
2018-09-06 10:04:58.753 -0400,479,440525.9317,-1.002120972,-0.03428649902,0.06561279297
2018-09-06 10:04:58.768 -0400,480,440525.9485,-1.005203247,-0.001373291016,0.06951904297
2018-09-06 10:04:58.787 -0400,481,440525.9654,-1.004348755,0.007949829102,0.08135986328
2018-09-06 10:04:58.801 -0400,482,440525.9823,-1.004882813,0.02612304688,0.07986450195
2018-09-06 10:04:58.843 -0400,483,440525.9991,-1.005844116,0.03741455078,0.07344055176
2018-09-06 10:04:58.845 -0400,484,440526.016,-1.005828857,0.03004455566,0.07443237305
2018-09-06 10:04:58.857 -0400,485,440526.0329,-1.0052948,0.03593444824,0.0675201416
2018-09-06 10:04:58.869 -0400,486,440526.0498,-1.006591797,0.03691101074,0.04481506348
2018-09-06 10:04:58.888 -0400,487,440526.0666,-1.004486084,0.02708435059,0.0315246582
2018-09-06 10:04:58.903 -0400,488,440526.0835,-1.002471924,0.0128326416,0.03105163574
2018-09-06 10:04:58.922 -0400,489,440526.1004,-1.001983643,-0.001876831055,0.03747558594
2018-09-06 10:04:58.936 -0400,490,440526.1172,-1.005020142,-0.008758544922,0.04930114746
2018-09-06 10:04:58.956 -0400,491,440526.1341,-1.004013062,-0.007278442383,0.04634094238
2018-09-06 10:04:58.970 -0400,492,440526.151,-1.005950928,0.007431030273,0.03744506836
2018-09-06 10:04:58.989 -0400,493,440526.1678,-1.004867554,0.01577758789,0.02314758301
2018-09-06 10:04:59.004 -0400,494,440526.1847,-1.004867554,0.01528930664,0.02264404297
2018-09-06 10:04:59.023 -0400,495,440526.2016,-1.005828857,0.01774597168,0.01919555664
2018-09-06 10:04:59.038 -0400,496,440526.2184,-0.9841766357,0.03100585938,0.01887512207
2018-09-06 10:04:59.058 -0400,497,440526.2353,-1.31451416,-0.4310455322,0.3782348633
2018-09-06 10:04:59.072 -0400,498,440526.2522,-0.7645111084,0.5014343262,-0.3680725098
2018-09-06 10:04:59.090 -0400,499,440526.2691,-1.031265259,-0.01223754883,-0.1102294922
2018-09-06 10:04:59.105 -0400,500,440526.2859,-1.032318115,0.1268615723,0.2033691406
2018-09-06 10:04:59.127 -0400,501,440526.3028,-1.02911377,-0.08874511719,0.2483978271
2018-09-06 10:04:59.149 -0400,502,440526.3197,-0.998626709,-0.06869506836,0.01190185547
2018-09-06 10:04:59.158 -0400,503,440526.3365,-1.020568848,-0.0343170166,-0.0277557373
2018-09-06 10:04:59.174 -0400,504,440526.3534,-0.9920043945,-0.02253723145,-0.02899169922
2018-09-06 10:04:59.192 -0400,505,440526.3703,-0.9647979736,0.005950927734,0.007720947266
2018-09-06 10:04:59.206 -0400,506,440526.3871,-0.9815063477,0.1405639648,0.07409667969
2018-09-06 10:04:59.226 -0400,507,440526.404,-0.9908752441,-0.01365661621,0.06866455078
2018-09-06 10:04:59.241 -0400,508,440526.4209,-0.9669799805,0.06541442871,0.0703125
2018-09-06 10:04:59.260 -0400,509,440526.4377,-0.9872894287,0.1076507568,0.06912231445
2018-09-06 10:04:59.274 -0400,510,440526.4546,-1.017272949,-0.1153717041,-0.04100036621
2018-09-06 10:04:59.293 -0400,511,440526.4715,-0.9901123047,0.1803131104,-0.02908325195
2018-09-06 10:04:59.316 -0400,512,440526.4883,-1.07019043,0.04626464844,0.1059112549
2018-09-06 10:04:59.346 -0400,513,440526.5052,-1.029891968,0.09393310547,0.1614837646
2018-09-06 10:04:59.348 -0400,514,440526.5221,-1.026687622,0.0408782959,0.148223877
2018-09-06 10:04:59.361 -0400,515,440526.539,-1.00541687,0.004516601563,0.0931854248
2018-09-06 10:04:59.375 -0400,516,440526.5558,-1.001739502,-0.02200317383,0.07398986816
2018-09-06 10:04:59.395 -0400,517,440526.5727,-1.037246704,-0.004302978516,0.1313781738
2018-09-06 10:04:59.409 -0400,518,440526.5896,-0.987411499,-0.02346801758,0.1293640137
2018-09-06 10:04:59.428 -0400,519,440526.6064,-0.9954223633,-0.05488586426,0.1539764404
2018-09-06 10:04:59.443 -0400,520,440526.6233,-0.9777069092,-0.05049133301,0.09690856934
2018-09-06 10:04:59.463 -0400,521,440526.6402,-1.001907349,0.02368164063,0.1376037598
2018-09-06 10:04:59.476 -0400,522,440526.657,-0.9968109131,-0.1212005615,0.1663208008
2018-09-06 10:04:59.495 -0400,523,440526.6739,-0.9929351807,-0.0627746582,0.09530639648
2018-09-06 10:04:59.510 -0400,524,440526.6908,-1.001800537,-0.06227111816,0.09423828125
2018-09-06 10:04:59.530 -0400,525,440526.7076,-1.003570557,-0.02294921875,0.1750946045
2018-09-06 10:04:59.543 -0400,526,440526.7245,-1.004547119,-0.01164245605,0.2293395996
2018-09-06 10:04:59.563 -0400,527,440526.7414,-1.004333496,-0.004776000977,0.2022094727
2018-09-06 10:04:59.578 -0400,528,440526.7583,-0.9969329834,0.005020141602,0.1386413574
2018-09-06 10:04:59.597 -0400,529,440526.7751,-1.003219604,0.01139831543,0.1222991943
2018-09-06 10:04:59.611 -0400,530,440526.792,-0.9791259766,-0.02200317383,0.08010864258
2018-09-06 10:04:59.630 -0400,531,440526.8089,-0.9595947266,0.002517700195,0.03440856934
2018-09-06 10:04:59.645 -0400,532,440526.8257,-0.9261322021,-0.02746582031,-0.06787109375
2018-09-06 10:04:59.664 -0400,533,440526.8426,-0.86277771,0.09426879883,-0.2626953125
2018-09-06 10:04:59.679 -0400,534,440526.8595,-0.9017944336,0.3221588135,-0.3287506104
2018-09-06 10:04:59.698 -0400,535,440526.8763,-1.011398315,0.5393218994,-0.1986236572
2018-09-06 10:04:59.712 -0400,536,440526.8932,-1.027252197,0.6685791016,0.003387451172
2018-09-06 10:04:59.732 -0400,537,440526.9101,-1.039474487,0.5581359863,0.20753479
2018-09-06 10:04:59.746 -0400,538,440526.9269,-1.023468018,0.4013824463,0.05435180664
2018-09-06 10:04:59.765 -0400,539,440526.9438,-0.9765014648,0.118927002,0.01249694824
2018-09-06 10:04:59.780 -0400,540,440526.9607,-1.101654053,0.01332092285,-0.01025390625
2018-09-06 10:04:59.799 -0400,541,440526.9775,-1.102218628,0.09442138672,0.1480255127
2018-09-06 10:04:59.843 -0400,542,440526.9944,-1.236206055,0.2768096924,0.5541687012
2018-09-06 10:04:59.845 -0400,543,440527.0113,-0.9993591309,0.3931732178,0.474822998
2018-09-06 10:04:59.849 -0400,544,440527.0282,-1.005523682,0.06488037109,-0.03408813477
2018-09-06 10:04:59.867 -0400,545,440527.045,-0.9866333008,-0.2903747559,-0.4633636475
2018-09-06 10:04:59.881 -0400,546,440527.0619,-0.9991455078,-0.5854644775,-0.1042327881
2018-09-06 10:04:59.900 -0400,547,440527.0788,-1.013473511,-0.567199707,0.1881103516
2018-09-06 10:04:59.915 -0400,548,440527.0956,-2.1743927,-0.6168212891,-0.078125
2018-09-06 10:04:59.934 -0400,549,440527.1125,-0.8860473633,-0.2431640625,-0.2523651123
2018-09-06 10:04:59.949 -0400,550,440527.1294,0.1249084473,-0.2744140625,0.4747467041
2018-09-06 10:04:59.967 -0400,551,440527.1462,-1.002731323,-0.2645263672,0.4519348145
2018-09-06 10:04:59.983 -0400,552,440527.1631,-1.246398926,-0.06652832031,0.5350036621
2018-09-06 10:05:00.002 -0400,553,440527.18,-1.103118896,-0.1800079346,0.526473999
2018-09-06 10:05:00.016 -0400,554,440527.1968,-1.432342529,-0.4933929443,0.4664916992
2018-09-06 10:05:00.036 -0400,555,440527.2137,-1.769821167,-0.4375762939,-0.1466522217
2018-09-06 10:05:00.050 -0400,556,440527.2306,-1.523681641,-0.1085510254,-0.2896575928
2018-09-06 10:05:00.069 -0400,557,440527.2475,-0.9983825684,0.1399841309,-0.2066955566
2018-09-06 10:05:00.084 -0400,558,440527.2643,-0.5316162109,0.3443145752,-0.1183166504
2018-09-06 10:05:00.103 -0400,559,440527.2812,-0.227722168,0.4444885254,-0.1388549805
2018-09-06 10:05:00.118 -0400,560,440527.2981,-0.09698486328,0.3565673828,-0.1297607422
2018-09-06 10:05:00.137 -0400,561,440527.3149,0.618270874,0.04309082031,-0.2411651611
2018-09-06 10:05:00.151 -0400,562,440527.3318,0.8311309814,0.1980133057,0.3530273438
2018-09-06 10:05:00.171 -0400,563,440527.3487,0.1439361572,-0.3334350586,0.2806091309
2018-09-06 10:05:00.186 -0400,564,440527.3655,-2.21875,0.2945861816,0.6751708984
2018-09-06 10:05:00.205 -0400,565,440527.3824,-4.203170776,-0.1103210449,-1.69102478
2018-09-06 10:05:00.218 -0400,566,440527.3993,3.523635864,1.286453247,0.7122192383
2018-09-06 10:05:00.238 -0400,567,440527.4161,1.36265564,-0.4948425293,1.074768066
2018-09-06 10:05:00.253 -0400,568,440527.433,-1.903656006,-1.114837646,-1.294784546
2018-09-06 10:05:00.272 -0400,569,440527.4499,-0.1438446045,0.1599731445,-0.4699249268
2018-09-06 10:05:00.286 -0400,570,440527.4668,-0.0831451416,-0.2514190674,0.1897735596
2018-09-06 10:05:00.305 -0400,571,440527.4836,-0.7195739746,-0.1793212891,-0.266708374
2018-09-06 10:05:00.346 -0400,572,440527.5005,-0.7377471924,-0.4195861816,0.9885406494
2018-09-06 10:05:00.347 -0400,573,440527.5174,-2.187225342,-0.1982269287,0.1942901611
2018-09-06 10:05:00.353 -0400,574,440527.5342,-2.731796265,-0.3181304932,-0.04473876953
2018-09-06 10:05:00.373 -0400,575,440527.5511,-3.258666992,-0.3664398193,-0.6580505371
2018-09-06 10:05:00.388 -0400,576,440527.568,-3.226013184,-0.3957061768,-0.07325744629
2018-09-06 10:05:00.407 -0400,577,440527.5849,-1.212463379,0.4933929443,0.4699249268
2018-09-06 10:05:00.421 -0400,578,440527.6017,-3.738021851,1.294952393,-0.2246398926
2018-09-06 10:05:00.440 -0400,579,440527.6186,-5.29850769,0.9857940674,-1.114807129
2018-09-06 10:05:00.455 -0400,580,440527.6355,-3.401763916,1.275375366,0.04911804199
2018-09-06 10:05:00.474 -0400,581,440527.6523,-2.723052979,1.138000488,0.6574554443
2018-09-06 10:05:00.488 -0400,582,440527.6692,-2.372787476,0.8382263184,0.2937316895
2018-09-06 10:05:00.507 -0400,583,440527.6861,-1.308990479,0.310546875,0.1135253906
2018-09-06 10:05:00.522 -0400,584,440527.7029,-0.4916534424,0.3593597412,0.814239502
2018-09-06 10:05:00.541 -0400,585,440527.7198,8.743942261,0.9660186768,2.646774292
2018-09-06 10:05:00.556 -0400,586,440527.7367,-2.253097534,-0.8800964355,1.351211548
2018-09-06 10:05:00.575 -0400,587,440527.7535,-2.225967407,-0.5744628906,0.2414855957
2018-09-06 10:05:00.590 -0400,588,440527.7704,-1.511734009,-0.8321990967,-0.6497497559
2018-09-06 10:05:00.609 -0400,589,440527.7873,-0.9695892334,-0.5904541016,-0.3382720947
2018-09-06 10:05:00.623 -0400,590,440527.8042,0.004516601563,-0.4229431152,-0.1038208008
2018-09-06 10:05:00.642 -0400,591,440527.821,1.407730103,-0.3473205566,0.1098022461
2018-09-06 10:05:00.657 -0400,592,440527.8379,1.226623535,-0.3006591797,0.06872558594
2018-09-06 10:05:00.677 -0400,593,440527.8548,0.6558685303,-0.2348022461,0.07054138184
2018-09-06 10:05:00.691 -0400,594,440527.8716,0.209197998,-0.1925048828,0.1484375
2018-09-06 10:05:00.710 -0400,595,440527.8885,-0.2648162842,-0.2789459229,0.0648651123
2018-09-06 10:05:00.725 -0400,596,440527.9054,-0.6717529297,-0.1886138916,-0.1488952637
2018-09-06 10:05:00.744 -0400,597,440527.9222,-0.6511383057,-0.113494873,-0.2242126465
2018-09-06 10:05:00.758 -0400,598,440527.9391,-0.4870910645,-0.1395263672,-0.2113952637
2018-09-06 10:05:00.778 -0400,599,440527.956,-0.4157409668,-0.1773529053,-0.1870727539
2018-09-06 10:05:00.793 -0400,600,440527.9728,-0.1437988281,0.09767150879,-0.2173614502
2018-09-06 10:05:00.816 -0400,601,440527.9897,0.3897094727,0.3123931885,0.0728302002
2018-09-06 10:05:00.846 -0400,602,440528.0066,0.5733642578,0.3325805664,0.2579345703
2018-09-06 10:05:00.847 -0400,603,440528.0234,0.4942321777,0.2687530518,0.3164672852
2018-09-06 10:05:00.860 -0400,604,440528.0403,0.2021179199,0.2353515625,0.2611083984
2018-09-06 10:05:00.879 -0400,605,440528.0572,0.02809143066,0.04818725586,0.1590423584
2018-09-06 10:05:00.894 -0400,606,440528.0741,-0.1424560547,0.03045654297,-0.001770019531
2018-09-06 10:05:00.912 -0400,607,440528.0909,-0.6225128174,0.009750366211,-0.3305664063
2018-09-06 10:05:00.928 -0400,608,440528.1078,-0.6788330078,0.08731079102,-0.4568786621
2018-09-06 10:05:00.946 -0400,609,440528.1247,-0.2677154541,0.06274414063,-0.4122772217
2018-09-06 10:05:00.961 -0400,610,440528.1415,0.4684906006,0.0892791748,-0.2568206787
2018-09-06 10:05:00.980 -0400,611,440528.1584,1.102661133,0.1084594727,-0.03466796875
2018-09-06 10:05:00.996 -0400,612,440528.1753,-2.401702881,-0.04483032227,0.5745849609
2018-09-06 10:05:01.014 -0400,613,440528.1921,-4.578552246,-1.17199707,-3.816741943
2018-09-06 10:05:01.028 -0400,614,440528.209,-1.332611084,-0.2016143799,3.411422729
2018-09-06 10:05:01.047 -0400,615,440528.2259,0.2666473389,-0.2926940918,0.2047271729
2018-09-06 10:05:01.070 -0400,616,440528.2427,-1.184143066,-0.1246643066,-1.413711548
2018-09-06 10:05:01.085 -0400,617,440528.2596,-2.376922607,-0.7003173828,-0.1070098877
2018-09-06 10:05:01.096 -0400,618,440528.2765,-3.567184448,-0.557434082,0.9507293701
2018-09-06 10:05:01.115 -0400,619,440528.2934,-2.221939087,-0.3835601807,1.169723511
2018-09-06 10:05:01.132 -0400,620,440528.3102,-2.820281982,-0.2377471924,0.8486633301
2018-09-06 10:05:01.149 -0400,621,440528.3271,-4.055267334,-0.2919006348,0.247833252
2018-09-06 10:05:01.163 -0400,622,440528.344,-1.459182739,-0.1193084717,1.311004639
2018-09-06 10:05:01.183 -0400,623,440528.3608,-3.991119385,0.2866516113,0.09815979004
2018-09-06 10:05:01.197 -0400,624,440528.3777,-3.592788696,0.754989624,0.8580932617
2018-09-06 10:05:01.216 -0400,625,440528.3946,-2.982757568,1.175857544,0.7093963623
2018-09-06 10:05:01.231 -0400,626,440528.4114,-3.448425293,1.358810425,-0.1727905273
2018-09-06 10:05:01.250 -0400,627,440528.4283,-3.384735107,1.104431152,0.01631164551
2018-09-06 10:05:01.265 -0400,628,440528.4451,-1.384643555,0.9711914063,0.04002380371
2018-09-06 10:05:01.284 -0400,629,440528.462,0.0458984375,0.2403717041,0.5576477051
2018-09-06 10:05:01.298 -0400,630,440528.4789,5.571426392,0.7014007568,2.434829712
2018-09-06 10:05:01.346 -0400,631,440528.4958,-5.367752075,-0.974395752,2.236175537
2018-09-06 10:05:01.348 -0400,632,440528.5126,-2.446105957,-1.086074829,-0.6006774902
2018-09-06 10:05:01.351 -0400,633,440528.5295,-1.858810425,-1.118087769,-0.763168335
2018-09-06 10:05:01.366 -0400,634,440528.5464,-1.359222412,-0.7501068115,-0.4136505127
2018-09-06 10:05:01.385 -0400,635,440528.5633,-0.4964294434,-0.4582977295,-0.1654510498
2018-09-06 10:05:01.400 -0400,636,440528.5801,0.4565887451,-0.2082977295,-0.02987670898
2018-09-06 10:05:01.419 -0400,637,440528.597,2.787490845,-0.6641387939,0.3757171631
2018-09-06 10:05:01.433 -0400,638,440528.6138,2.649719238,-0.6814117432,0.1229553223
2018-09-06 10:05:01.452 -0400,639,440528.6307,0.9061889648,-0.4294128418,-0.1614227295
2018-09-06 10:05:01.467 -0400,640,440528.6476,-0.4585418701,-0.01493835449,-0.7232055664
2018-09-06 10:05:01.486 -0400,641,440528.6644,-1.284317017,0.02526855469,-1.032897949
2018-09-06 10:05:01.500 -0400,642,440528.6813,-1.42149353,-0.04685974121,-0.8658752441
2018-09-06 10:05:01.519 -0400,643,440528.6982,-0.8730773926,-0.01675415039,-0.3490447998
2018-09-06 10:05:01.535 -0400,644,440528.715,-0.1103363037,-0.03678894043,0.1272735596
2018-09-06 10:05:01.554 -0400,645,440528.7319,0.4351959229,0.2284851074,0.3184204102
2018-09-06 10:05:01.568 -0400,646,440528.7488,0.5883331299,0.2545471191,0.4396209717
2018-09-06 10:05:01.587 -0400,647,440528.7657,0.2589569092,0.3699645996,0.3710479736
2018-09-06 10:05:01.602 -0400,648,440528.7825,-0.1081390381,0.4269256592,0.2390289307
2018-09-06 10:05:01.621 -0400,649,440528.7994,-0.3025512695,0.3625793457,0.1756896973
2018-09-06 10:05:01.636 -0400,650,440528.8163,-0.3252716064,0.2559967041,0.2194366455
2018-09-06 10:05:01.654 -0400,651,440528.8331,-0.2176971436,0.1228637695,0.1859283447
2018-09-06 10:05:01.670 -0400,652,440528.85,0.01750183105,0.03691101074,0.2507019043
2018-09-06 10:05:01.689 -0400,653,440528.8669,-0.03149414063,-0.01518249512,0.1185913086
2018-09-06 10:05:01.703 -0400,654,440528.8837,-0.2210235596,-0.05157470703,-0.06506347656
2018-09-06 10:05:01.722 -0400,655,440528.9006,-0.3169555664,-0.06190490723,-0.1379241943
2018-09-06 10:05:01.737 -0400,656,440528.9175,-0.1949157715,-0.07417297363,-0.05642700195
2018-09-06 10:05:01.756 -0400,657,440528.9343,0.01727294922,-0.120300293,0.09490966797
2018-09-06 10:05:01.770 -0400,658,440528.9512,0.2481536865,-0.241104126,0.2203216553
2018-09-06 10:05:01.790 -0400,659,440528.9681,0.7710266113,-0.2907562256,0.2239990234
2018-09-06 10:05:01.805 -0400,660,440528.985,1.428131104,-0.4234313965,0.1711883545
2018-09-06 10:05:01.848 -0400,661,440529.0018,2.002960205,-0.441116333,0.3153839111
2018-09-06 10:05:01.851 -0400,662,440529.0187,-5.220840454,-0.7462463379,-5.695999146
2018-09-06 10:05:01.858 -0400,663,440529.0356,1.541091919,-0.4202270508,-1.909301758
2018-09-06 10:05:01.872 -0400,664,440529.0524,1.386123657,0.6441497803,2.302581787
2018-09-06 10:05:01.892 -0400,665,440529.0693,-7.510009766,-0.6282806396,-3.019760132
2018-09-06 10:05:01.905 -0400,666,440529.0862,-0.7705078125,-0.8361206055,3.8724823
2018-09-06 10:05:01.924 -0400,667,440529.103,-2.414718628,-0.4066467285,1.133499146
2018-09-06 10:05:01.939 -0400,668,440529.1199,-3.323577881,-0.1930999756,2.040313721
2018-09-06 10:05:01.958 -0400,669,440529.1368,-3.876403809,0.1601715088,2.27494812
2018-09-06 10:05:01.973 -0400,670,440529.1536,-1.268173218,0.4128265381,1.858444214
2018-09-06 10:05:01.992 -0400,671,440529.1705,-2.930541992,1.1300354,0.3133087158
2018-09-06 10:05:02.007 -0400,672,440529.1874,-4.691925049,0.1893463135,-3.09336853
2018-09-06 10:05:02.026 -0400,673,440529.2042,-3.207885742,-0.1163787842,-1.985549927
2018-09-06 10:05:02.040 -0400,674,440529.2211,-4.315338135,-0.0319519043,-0.9117431641
2018-09-06 10:05:02.059 -0400,675,440529.238,-5.204833984,0.38331604,-0.4443359375
2018-09-06 10:05:02.074 -0400,676,440529.2549,-2.737060547,0.4570159912,0.0874786377
2018-09-06 10:05:02.098 -0400,677,440529.2717,-0.9233856201,-0.08422851563,0.5650024414
2018-09-06 10:05:02.109 -0400,678,440529.2886,-1.254257202,-0.04081726074,1.05480957
2018-09-06 10:05:02.127 -0400,679,440529.3055,14.97459412,2.163726807,2.911972046
2018-09-06 10:05:02.142 -0400,680,440529.3223,-4.496795654,0.4209747314,0.6618347168
2018-09-06 10:05:02.161 -0400,681,440529.3392,-2.33631897,-0.2984313965,0.1456756592
2018-09-06 10:05:02.176 -0400,682,440529.3561,-1.335678101,0.1434020996,-0.2915649414
2018-09-06 10:05:02.195 -0400,683,440529.3729,-0.7269134521,-0.2337341309,0.04052734375
2018-09-06 10:05:02.210 -0400,684,440529.3898,0.3053131104,-0.2479095459,0.4580841064
2018-09-06 10:05:02.228 -0400,685,440529.4067,0.9636077881,-0.2385559082,0.6276702881
2018-09-06 10:05:02.243 -0400,686,440529.4235,1.199981689,-0.2552642822,0.649017334
2018-09-06 10:05:02.262 -0400,687,440529.4404,0.7704772949,-0.2347869873,0.1529388428
2018-09-06 10:05:02.277 -0400,688,440529.4573,0.1818389893,-0.2820587158,-0.3222961426
2018-09-06 10:05:02.296 -0400,689,440529.4742,-0.3515777588,-0.2516479492,-0.5292816162
2018-09-06 10:05:02.317 -0400,690,440529.491,-0.8120727539,-0.155380249,-0.6443786621
2018-09-06 10:05:02.346 -0400,691,440529.5079,-0.9032440186,-0.00749206543,-0.57472229
2018-09-06 10:05:02.347 -0400,692,440529.5248,-0.6088256836,0.001876831055,-0.3728485107
2018-09-06 10:05:02.364 -0400,693,440529.5416,-0.03462219238,-0.01475524902,-0.09696960449
2018-09-06 10:05:02.378 -0400,694,440529.5585,0.4115447998,0.02998352051,0.1511077881
2018-09-06 10:05:02.397 -0400,695,440529.5754,0.4206542969,0.09091186523,0.2182312012
2018-09-06 10:05:02.412 -0400,696,440529.5923,0.1316680908,0.1252746582,0.1194763184
2018-09-06 10:05:02.431 -0400,697,440529.6091,-0.1515045166,0.1287078857,0.04495239258
2018-09-06 10:05:02.445 -0400,698,440529.626,-0.1837921143,0.06535339355,0.03877258301
2018-09-06 10:05:02.464 -0400,699,440529.6429,-0.04598999023,-0.01322937012,0.08442687988
2018-09-06 10:05:02.479 -0400,700,440529.6597,0.1925506592,-0.0765838623,0.1556243896
2018-09-06 10:05:02.499 -0400,701,440529.6766,0.2747650146,-0.08050537109,0.1637573242
2018-09-06 10:05:02.513 -0400,702,440529.6935,0.1126098633,-0.05598449707,0.04441833496
2018-09-06 10:05:02.532 -0400,703,440529.7103,-0.07890319824,-0.01625061035,-0.1619720459
2018-09-06 10:05:02.547 -0400,704,440529.7272,-0.1761474609,0.003845214844,-0.2654418945
2018-09-06 10:05:02.566 -0400,705,440529.7441,-0.1574249268,0.003356933594,-0.2652740479
2018-09-06 10:05:02.580 -0400,706,440529.7609,-0.04174804688,0.005828857422,-0.1932220459
2018-09-06 10:05:02.599 -0400,707,440529.7778,0.1298370361,0.03384399414,-0.1014556885
2018-09-06 10:05:02.614 -0400,708,440529.7947,0.3808288574,-0.07957458496,0.03004455566
2018-09-06 10:05:02.633 -0400,709,440529.8116,0.6128082275,-0.1689453125,0.1899871826
2018-09-06 10:05:02.647 -0400,710,440529.8284,0.7792053223,-0.1787261963,0.3280944824
2018-09-06 10:05:02.667 -0400,711,440529.8453,0.9548187256,-0.0382232666,0.4311828613
2018-09-06 10:05:02.682 -0400,712,440529.8622,1.036376953,0.1813049316,0.3854217529
2018-09-06 10:05:02.701 -0400,713,440529.879,-4.66583252,-1.414169312,-2.42791748
2018-09-06 10:05:02.715 -0400,714,440529.8959,0.2810516357,0.008087158203,-3.568115234
2018-09-06 10:05:02.734 -0400,715,440529.9128,1.256744385,-1.026306152,3.965499878
2018-09-06 10:05:02.749 -0400,716,440529.9296,-6.359695435,-0.4971618652,1.438934326
2018-09-06 10:05:02.768 -0400,717,440529.9465,-1.595336914,0.3820343018,3.697341919
2018-09-06 10:05:02.783 -0400,718,440529.9634,-2.485580444,0.8219909668,0.1763458252
2018-09-06 10:05:02.802 -0400,719,440529.9802,-6.294662476,0.6185150146,-0.8842163086
2018-09-06 10:05:02.843 -0400,720,440529.9971,-2.589172363,-0.06465148926,-1.397079468
2018-09-06 10:05:02.845 -0400,721,440530.014,-1.144607544,0.4442901611,-0.9115142822
2018-09-06 10:05:02.850 -0400,722,440530.0308,-5.134506226,0.6468353271,-1.167938232
2018-09-06 10:05:02.869 -0400,723,440530.0477,-4.118515015,-0.890625,-1.061477661
2018-09-06 10:05:02.884 -0400,724,440530.0646,-3.4921875,-0.3963775635,0.8235626221
2018-09-06 10:05:02.904 -0400,725,440530.0815,-4.285842896,0.08352661133,0.7087554932
2018-09-06 10:05:02.918 -0400,726,440530.0983,-3.322265625,0.1288146973,1.185852051
2018-09-06 10:05:02.937 -0400,727,440530.1152,-2.882858276,0.4467010498,1.501327515
2018-09-06 10:05:02.952 -0400,728,440530.1321,-0.3549194336,0.6364898682,1.102386475
2018-09-06 10:05:02.971 -0400,729,440530.1489,0.5867614746,0.9307556152,1.401596069
2018-09-06 10:05:02.985 -0400,730,440530.1658,-3.185974121,3.320831299,6.201278687
2018-09-06 10:05:03.004 -0400,731,440530.1827,-2.325500488,0.04867553711,-0.2632904053
2018-09-06 10:05:03.019 -0400,732,440530.1995,-1.079910278,0.05068969727,0.08708190918
2018-09-06 10:05:03.038 -0400,733,440530.2164,0.04313659668,-0.09375,0.1750335693
2018-09-06 10:05:03.053 -0400,734,440530.2332,0.7256317139,-0.8857116699,-0.1573638916
2018-09-06 10:05:03.072 -0400,735,440530.2501,0.8322601318,-0.7206878662,-0.1782073975
2018-09-06 10:05:03.086 -0400,736,440530.267,0.7486877441,-0.4353790283,-0.4153594971
2018-09-06 10:05:03.106 -0400,737,440530.2839,0.2564086914,-0.2124023438,-0.6008605957
2018-09-06 10:05:03.120 -0400,738,440530.3007,-0.1440429688,-0.1118621826,-1.121368408
2018-09-06 10:05:03.139 -0400,739,440530.3176,-0.3818511963,0.06297302246,-1.200027466
2018-09-06 10:05:03.154 -0400,740,440530.3345,-0.5271453857,-0.007080078125,-0.7104949951
2018-09-06 10:05:03.175 -0400,741,440530.3514,-0.4110717773,-0.009429931641,-0.3913269043
2018-09-06 10:05:03.187 -0400,742,440530.3682,0.05024719238,-0.07954406738,0.08630371094
2018-09-06 10:05:03.207 -0400,743,440530.3851,0.3345489502,-0.01860046387,0.2411956787
2018-09-06 10:05:03.223 -0400,744,440530.402,0.3052215576,-0.09817504883,0.2404937744
2018-09-06 10:05:03.241 -0400,745,440530.4188,0.1618347168,-0.06678771973,0.05422973633
2018-09-06 10:05:03.255 -0400,746,440530.4357,0.02992248535,-0.1817474365,-0.04156494141
2018-09-06 10:05:03.274 -0400,747,440530.4526,0.01937866211,-0.2485351563,0.004730224609
2018-09-06 10:05:03.289 -0400,748,440530.4695,0.08419799805,-0.3295440674,0.1168212891
2018-09-06 10:05:03.317 -0400,749,440530.4863,0.1548156738,-0.2916870117,0.2619476318
2018-09-06 10:05:03.346 -0400,750,440530.5032,0.1857452393,-0.2420806885,0.2582550049
2018-09-06 10:05:03.348 -0400,751,440530.5201,0.1996612549,-0.1836547852,0.1656036377
2018-09-06 10:05:03.357 -0400,752,440530.5369,0.05851745605,-0.1733856201,0.01292419434
2018-09-06 10:05:03.376 -0400,753,440530.5538,-0.1284179688,-0.008377075195,-0.1352844238
2018-09-06 10:05:03.390 -0400,754,440530.5707,-0.1805419922,0.1541442871,-0.2616119385
2018-09-06 10:05:03.409 -0400,755,440530.5875,-0.08200073242,0.3236083984,-0.2603302002
2018-09-06 10:05:03.424 -0400,756,440530.6044,-0.03216552734,0.4488830566,-0.193862915
2018-09-06 10:05:03.443 -0400,757,440530.6213,-0.08164978027,0.3546142578,-0.07635498047
2018-09-06 10:05:03.457 -0400,758,440530.6381,-0.01489257813,0.1999053955,0.005676269531
2018-09-06 10:05:03.476 -0400,759,440530.655,0.06561279297,0.126739502,0.06512451172
2018-09-06 10:05:03.491 -0400,760,440530.6719,0.09928894043,0.03883361816,0.1325531006
2018-09-06 10:05:03.511 -0400,761,440530.6888,0.02815246582,-0.03379821777,0.238494873
2018-09-06 10:05:03.525 -0400,762,440530.7056,0.03884887695,-0.1609802246,0.3585205078
2018-09-06 10:05:03.544 -0400,763,440530.7225,0.2968444824,-0.1864929199,0.5068206787
2018-09-06 10:05:03.559 -0400,764,440530.7394,1.037414551,-0.1878967285,0.8576660156
2018-09-06 10:05:03.578 -0400,765,440530.7562,-7.088806152,-1.727203369,-0.3973236084
2018-09-06 10:05:03.592 -0400,766,440530.7731,3.575958252,1.330383301,-0.08045959473
2018-09-06 10:05:03.611 -0400,767,440530.79,2.861480713,1.092132568,2.602005005
2018-09-06 10:05:03.626 -0400,768,440530.8068,-5.050598145,0.5669708252,-1.984954834
2018-09-06 10:05:03.646 -0400,769,440530.8237,-2.972366333,0.4078674316,1.436431885
2018-09-06 10:05:03.660 -0400,770,440530.8406,-5.482086182,0.3663787842,-1.164459229
2018-09-06 10:05:03.679 -0400,771,440530.8574,-16.11051941,-0.1734313965,-3.206161499
2018-09-06 10:05:03.694 -0400,772,440530.8743,-0.519317627,-1.205322266,4.421401978
2018-09-06 10:05:03.713 -0400,773,440530.8912,-1.222640991,0.1027526855,0.05224609375
2018-09-06 10:05:03.727 -0400,774,440530.9081,-5.397064209,0.6419525146,-1.114517212
2018-09-06 10:05:03.746 -0400,775,440530.9249,-4.571121216,-0.5714874268,-0.131439209
2018-09-06 10:05:03.761 -0400,776,440530.9418,-3.452102661,-0.6185302734,0.4067382813
2018-09-06 10:05:03.780 -0400,777,440530.9587,-4.179473877,0.0606842041,0.01472473145
2018-09-06 10:05:03.794 -0400,778,440530.9755,-3.087402344,-0.3600769043,0.721572876
2018-09-06 10:05:03.816 -0400,779,440530.9924,-2.015457153,0.4205322266,1.30531311
2018-09-06 10:05:03.845 -0400,780,440531.0093,-0.2685241699,0.6291351318,1.143600464
2018-09-06 10:05:03.848 -0400,781,440531.0261,5.685653687,1.516647339,0.6355743408
2018-09-06 10:05:03.863 -0400,782,440531.043,-9.736190796,1.883956909,1.686523438
2018-09-06 10:05:03.881 -0400,783,440531.0599,-4.034057617,-0.7029266357,-0.8546600342
2018-09-06 10:05:03.896 -0400,784,440531.0767,-1.965072632,0.5170593262,-0.8660430908
2018-09-06 10:05:03.916 -0400,785,440531.0936,-0.4163208008,-0.02127075195,-0.5245361328
2018-09-06 10:05:03.930 -0400,786,440531.1105,0.9499511719,0.08764648438,-0.620010376
2018-09-06 10:05:03.949 -0400,787,440531.1273,1.952270508,-0.5066833496,-0.4372253418
2018-09-06 10:05:03.963 -0400,788,440531.1442,1.730560303,-0.4918823242,-0.2660522461
2018-09-06 10:05:03.983 -0400,789,440531.1611,0.06597900391,-0.7398376465,-0.2752532959
2018-09-06 10:05:03.997 -0400,790,440531.178,-0.4372711182,-0.8755187988,-0.7359008789
2018-09-06 10:05:04.017 -0400,791,440531.1948,-0.7032775879,-0.8822479248,-0.3273773193
2018-09-06 10:05:04.033 -0400,792,440531.2117,-0.6814575195,-0.3310394287,-0.06011962891
2018-09-06 10:05:04.050 -0400,793,440531.2286,-0.7211456299,-0.1271209717,0.139175415
2018-09-06 10:05:04.070 -0400,794,440531.2454,-0.8565063477,-0.06860351563,0.2799987793
2018-09-06 10:05:04.087 -0400,795,440531.2623,-0.5604095459,-0.06912231445,0.2836151123
2018-09-06 10:05:04.099 -0400,796,440531.2792,-0.1091308594,-0.02442932129,0.3334655762
2018-09-06 10:05:04.118 -0400,797,440531.296,0.3908843994,0.0948638916,0.3013305664
2018-09-06 10:05:04.132 -0400,798,440531.3129,0.7827758789,0.1597747803,0.5523834229
2018-09-06 10:05:04.154 -0400,799,440531.3298,0.193572998,0.1204376221,0.3197937012
2018-09-06 10:05:04.166 -0400,800,440531.3466,-0.1873931885,0.2342681885,-0.1186676025
2018-09-06 10:05:04.186 -0400,801,440531.3635,-0.3598937988,0.491607666,-0.2589263916
2018-09-06 10:05:04.199 -0400,802,440531.3804,-0.1406555176,0.4326782227,-0.176071167
2018-09-06 10:05:04.219 -0400,803,440531.3972,-0.0895690918,0.377166748,-0.1992645264
2018-09-06 10:05:04.234 -0400,804,440531.4141,-0.06121826172,0.2076568604,-0.3503570557
2018-09-06 10:05:04.253 -0400,805,440531.431,-0.02410888672,0.1826324463,-0.242477417
2018-09-06 10:05:04.267 -0400,806,440531.4479,0.07650756836,0.1104431152,-0.1729888916
2018-09-06 10:05:04.286 -0400,807,440531.4647,0.1848602295,-0.09483337402,-0.09794616699
2018-09-06 10:05:04.301 -0400,808,440531.4816,0.3738708496,-0.2863616943,0.04931640625
2018-09-06 10:05:04.342 -0400,809,440531.4985,0.4201812744,-0.3187713623,0.1197814941
2018-09-06 10:05:04.344 -0400,810,440531.5153,0.2750854492,-0.341796875,0.2738800049
2018-09-06 10:05:04.354 -0400,811,440531.5322,0.3169555664,-0.18019104,0.2796020508
2018-09-06 10:05:04.369 -0400,812,440531.5491,0.3457183838,0.1179962158,0.3921661377
2018-09-06 10:05:04.388 -0400,813,440531.5659,0.3330230713,-0.02789306641,0.3689422607
2018-09-06 10:05:04.402 -0400,814,440531.5828,0.3769226074,-0.0588684082,0.2554168701
2018-09-06 10:05:04.421 -0400,815,440531.5997,0.3762664795,0.01571655273,0.07188415527
2018-09-06 10:05:04.436 -0400,816,440531.6165,0.1831817627,-0.07025146484,-0.02348327637
2018-09-06 10:05:04.455 -0400,817,440531.6334,-0.03784179688,-0.05850219727,-0.1679992676
2018-09-06 10:05:04.469 -0400,818,440531.6503,-0.03860473633,0.08297729492,-0.06549072266
2018-09-06 10:05:04.488 -0400,819,440531.6671,0.3677978516,0.0732421875,0.2409515381
2018-09-06 10:05:04.503 -0400,820,440531.684,-4.779953003,-3.803665161,-0.4606628418
2018-09-06 10:05:04.523 -0400,821,440531.7009,-0.1429901123,2.104171753,-1.761230469
2018-09-06 10:05:04.537 -0400,822,440531.7178,1.20489502,-0.3829956055,2.049942017
2018-09-06 10:05:04.556 -0400,823,440531.7346,-4.183609009,-0.1237487793,2.164855957
2018-09-06 10:05:04.571 -0400,824,440531.7515,-1.513916016,0.4905853271,2.290283203
2018-09-06 10:05:04.590 -0400,825,440531.7684,-2.350524902,0.1543884277,1.457839966
2018-09-06 10:05:04.604 -0400,826,440531.7852,-9.378952026,-0.1022186279,0.9414367676
2018-09-06 10:05:04.624 -0400,827,440531.8021,-0.1168670654,1.684234619,-1.680389404
2018-09-06 10:05:04.639 -0400,828,440531.819,-1.142547607,1.721954346,-2.181762695
2018-09-06 10:05:04.658 -0400,829,440531.8358,-3.792053223,0.2671203613,-0.9580535889
2018-09-06 10:05:04.672 -0400,830,440531.8527,-4.213500977,-0.3870697021,-0.8322296143
2018-09-06 10:05:04.691 -0400,831,440531.8696,-2.917648315,-0.3459777832,0.3304443359
2018-09-06 10:05:04.706 -0400,832,440531.8864,-4.356643677,-0.8970336914,0.2568206787
2018-09-06 10:05:04.725 -0400,833,440531.9033,-3.873565674,-0.8821868896,0.6971130371
2018-09-06 10:05:04.739 -0400,834,440531.9202,-1.203994751,-0.2777404785,0.5428924561
2018-09-06 10:05:04.758 -0400,835,440531.937,-1.322006226,-0.1643371582,0.3592834473
2018-09-06 10:05:04.773 -0400,836,440531.9539,-1.974990845,-0.02474975586,0.505355835
2018-09-06 10:05:04.792 -0400,837,440531.9708,2.314590454,0.5000305176,0.4404907227
2018-09-06 10:05:04.817 -0400,838,440531.9877,-5.505279541,-0.3984375,3.050491333
2018-09-06 10:05:04.844 -0400,839,440532.0045,-3.337966919,-1.211883545,-0.9641418457
2018-09-06 10:05:04.846 -0400,840,440532.0214,-1.829025269,0.4714202881,-0.6813201904
2018-09-06 10:05:04.860 -0400,841,440532.0383,-0.2634124756,0.3329315186,-0.3107757568
2018-09-06 10:05:04.874 -0400,842,440532.0551,0.9865875244,0.342956543,0.5111694336
2018-09-06 10:05:04.893 -0400,843,440532.072,1.841583252,0.2304992676,0.7669067383
2018-09-06 10:05:04.908 -0400,844,440532.0889,1.430114746,-0.002334594727,0.6173858643
2018-09-06 10:05:04.928 -0400,845,440532.1057,0.5773925781,-0.4156188965,-0.08888244629
2018-09-06 10:05:04.942 -0400,846,440532.1226,-0.1608428955,-0.5134124756,-0.3883514404
2018-09-06 10:05:04.961 -0400,847,440532.1395,-0.7375030518,-0.3425140381,-0.6021881104
2018-09-06 10:05:04.976 -0400,848,440532.1563,-1.061157227,-0.1597900391,-0.6692810059
2018-09-06 10:05:04.995 -0400,849,440532.1732,-0.8932495117,0.05534362793,-0.6121520996
2018-09-06 10:05:05.009 -0400,850,440532.1901,-0.5091094971,0.001876831055,-0.3369445801
2018-09-06 10:05:05.028 -0400,851,440532.2069,-0.09248352051,0.02503967285,-0.02548217773
2018-09-06 10:05:05.044 -0400,852,440532.2238,0.415222168,0.07176208496,0.2260894775
2018-09-06 10:05:05.063 -0400,853,440532.2407,0.7467803955,0.1720123291,0.4326782227
2018-09-06 10:05:05.076 -0400,854,440532.2576,0.6421661377,0.2806243896,0.5924987793
2018-09-06 10:05:05.096 -0400,855,440532.2744,0.3535003662,0.2565765381,0.5934143066
2018-09-06 10:05:05.112 -0400,856,440532.2913,-0.07327270508,0.173034668,0.3977966309
2018-09-06 10:05:05.131 -0400,857,440532.3082,-0.5596466064,0.06880187988,0.02755737305
2018-09-06 10:05:05.145 -0400,858,440532.325,-0.8407897949,0.03436279297,-0.2200469971
2018-09-06 10:05:05.163 -0400,859,440532.3419,-0.6526641846,0.0795135498,-0.2835083008
2018-09-06 10:05:05.178 -0400,860,440532.3588,-0.1519775391,0.1502838135,-0.0823059082
2018-09-06 10:05:05.198 -0400,861,440532.3756,0.1607818604,0.3163299561,0.05009460449
2018-09-06 10:05:05.211 -0400,862,440532.3925,0.2164611816,0.3433380127,0.04020690918
2018-09-06 10:05:05.231 -0400,863,440532.4094,0.1417999268,0.1837005615,0.008056640625
2018-09-06 10:05:05.246 -0400,864,440532.4262,-0.01579284668,-0.06338500977,-0.09233093262
2018-09-06 10:05:05.265 -0400,865,440532.4431,-0.1229553223,-0.2009277344,-0.1351470947
2018-09-06 10:05:05.279 -0400,866,440532.46,-0.04309082031,-0.3384552002,-0.09342956543
2018-09-06 10:05:05.298 -0400,867,440532.4769,0.133026123,-0.4455108643,0.03295898438
2018-09-06 10:05:05.317 -0400,868,440532.4937,0.583404541,-0.5869445801,0.1948547363
2018-09-06 10:05:05.345 -0400,869,440532.5106,0.8524017334,-0.5977478027,0.2589111328
2018-09-06 10:05:05.347 -0400,870,440532.5275,0.7687225342,-0.4288330078,0.07409667969
2018-09-06 10:05:05.366 -0400,871,440532.5444,0.3113861084,-0.1381378174,-0.3074188232
2018-09-06 10:05:05.381 -0400,872,440532.5612,0.0489654541,0.2350158691,-0.7513885498
2018-09-06 10:05:05.400 -0400,873,440532.5781,0.3510742188,0.434967041,-0.5924530029
2018-09-06 10:05:05.414 -0400,874,440532.595,-12.32688904,-0.8081512451,-1.350769043
2018-09-06 10:05:05.434 -0400,875,440532.6118,5.321548462,1.369308472,2.040634155
2018-09-06 10:05:05.450 -0400,876,440532.6287,2.868347168,-0.7835693359,3.064682007
2018-09-06 10:05:05.468 -0400,877,440532.6455,-4.504470825,-0.6587371826,-1.002868652
2018-09-06 10:05:05.482 -0400,878,440532.6624,-4.51512146,-0.8314971924,2.277191162
2018-09-06 10:05:05.501 -0400,879,440532.6793,-7.031082153,-0.1509399414,-0.3507385254
2018-09-06 10:05:05.515 -0400,880,440532.6961,-7.548751831,0.4663238525,-3.767425537
2018-09-06 10:05:05.683 -0400,881,440532.713,-1.309631348,0.2633056641,1.268722534
2018-09-06 10:05:05.685 -0400,882,440532.7299,-1.144195557,0.3270263672,2.381439209
2018-09-06 10:05:05.686 -0400,883,440532.7468,-5.335723877,-0.578338623,1.275909424
2018-09-06 10:05:05.688 -0400,884,440532.7636,-4.417297363,-0.02207946777,-0.802154541
2018-09-06 10:05:05.689 -0400,885,440532.7805,-1.807998657,0.1116485596,0.1092071533
2018-09-06 10:05:05.691 -0400,886,440532.7974,-2.609466553,-0.3064880371,-0.4772338867
2018-09-06 10:05:05.692 -0400,887,440532.8142,-3.42767334,-0.5213775635,0.1035614014
2018-09-06 10:05:05.694 -0400,888,440532.8311,-3.032394409,0.336517334,1.036407471
2018-09-06 10:05:05.695 -0400,889,440532.848,-1.207672119,0.4964904785,0.8990783691
2018-09-06 10:05:05.698 -0400,890,440532.8648,-0.1529083252,0.4225158691,0.2322235107
2018-09-06 10:05:05.703 -0400,891,440532.8817,-2.356002808,1.546066284,1.819137573
2018-09-06 10:05:05.718 -0400,892,440532.8986,0.2294769287,0.3852386475,-2.417037964
2018-09-06 10:05:05.788 -0400,893,440532.9154,-1.908294678,0.5771331787,-0.4285583496
2018-09-06 10:05:05.793 -0400,894,440532.9323,-0.6553039551,0.01559448242,-0.4763641357
2018-09-06 10:05:05.795 -0400,895,440532.9492,-0.09010314941,-0.02542114258,0.2966308594
2018-09-06 10:05:05.797 -0400,896,440532.966,0.2401123047,-0.425201416,0.5370178223
2018-09-06 10:05:05.805 -0400,897,440532.9829,0.4684295654,-0.4527435303,0.4635772705
2018-09-06 10:05:05.819 -0400,898,440532.9998,0.8428192139,-0.5972442627,0.285949707
2018-09-06 10:05:05.838 -0400,899,440533.0167,1.214767456,-0.5339660645,0.09289550781
2018-09-06 10:05:05.863 -0400,900,440533.0335,0.8653259277,-0.4671325684,0.1425476074
2018-09-06 10:05:05.872 -0400,901,440533.0504,0.02053833008,-0.2848052979,0.2316436768
2018-09-06 10:05:05.887 -0400,902,440533.0673,-0.6139831543,-0.2690887451,0.09925842285
2018-09-06 10:05:05.906 -0400,903,440533.0841,-0.7878417969,-0.2195739746,-0.2194519043
2018-09-06 10:05:05.920 -0400,904,440533.101,-0.6377563477,-0.1454772949,-0.3991851807
2018-09-06 10:05:05.940 -0400,905,440533.1179,-0.3421020508,-0.06002807617,-0.3724365234
2018-09-06 10:05:05.954 -0400,906,440533.1347,0.06845092773,0.1531677246,-0.2258605957
2018-09-06 10:05:05.973 -0400,907,440533.1516,0.4622344971,0.3427734375,-0.1248016357
2018-09-06 10:05:05.988 -0400,908,440533.1685,0.6134338379,0.3560638428,-0.004608154297
2018-09-06 10:05:06.007 -0400,909,440533.1853,0.444152832,0.2578887939,0.1211853027
2018-09-06 10:05:06.027 -0400,910,440533.2022,0.187210083,0.09729003906,0.1446380615
2018-09-06 10:05:06.041 -0400,911,440533.2191,-0.06408691406,-0.06970214844,0.08676147461
2018-09-06 10:05:06.055 -0400,912,440533.2359,-0.05097961426,-0.1993865967,0.09631347656
2018-09-06 10:05:06.075 -0400,913,440533.2528,0.1404571533,-0.109954834,0.2094421387
2018-09-06 10:05:06.089 -0400,914,440533.2697,0.3376312256,-0.03135681152,0.2900695801
2018-09-06 10:05:06.108 -0400,915,440533.2866,0.3901824951,-0.06767272949,0.3818054199
2018-09-06 10:05:06.123 -0400,916,440533.3034,0.2566680908,-0.1762542725,0.2983093262
2018-09-06 10:05:06.143 -0400,917,440533.3203,0.1927947998,-0.2318267822,0.06001281738
2018-09-06 10:05:06.194 -0400,918,440533.3372,0.2406768799,-0.126739502,0.0135345459
2018-09-06 10:05:06.196 -0400,919,440533.354,0.271194458,-0.07557678223,0.2367248535
2018-09-06 10:05:06.197 -0400,920,440533.3709,0.4306793213,0.1194915771,0.4831848145
2018-09-06 10:05:06.216 -0400,921,440533.3878,0.386932373,0.1961517334,0.5631561279
2018-09-06 10:05:06.231 -0400,922,440533.4046,0.2287445068,0.367477417,0.2726287842
2018-09-06 10:05:06.244 -0400,923,440533.4215,-8.801818848,-1.745834351,0.828994751
2018-09-06 10:05:06.260 -0400,924,440533.4384,1.077148438,1.656402588,-5.291213989
2018-09-06 10:05:06.277 -0400,925,440533.4552,-5.161224365,-0.7498474121,3.920852661
2018-09-06 10:05:06.291 -0400,926,440533.4721,-2.919265747,0.5629425049,2.458831787
2018-09-06 10:05:06.310 -0400,927,440533.489,-2.169433594,0.9783172607,-0.8005065918
2018-09-06 10:05:06.325 -0400,928,440533.5058,-1.891311646,0.4267120361,-2.173919678
2018-09-06 10:05:06.345 -0400,929,440533.5227,-3.040618896,0.1634216309,-0.9873657227
2018-09-06 10:05:06.359 -0400,930,440533.5396,-4.660720825,-0.7774505615,0.8735809326
2018-09-06 10:05:06.378 -0400,931,440533.5565,-2.530334473,-0.650177002,1.431991577
2018-09-06 10:05:06.393 -0400,932,440533.5733,-1.791946411,-0.491027832,1.576568604
2018-09-06 10:05:06.413 -0400,933,440533.5902,-5.296707153,-0.17237854,-0.9376220703
2018-09-06 10:05:06.428 -0400,934,440533.6071,-3.552398682,0.3000030518,0.4241333008
2018-09-06 10:05:06.445 -0400,935,440533.624,-4.372070313,0.2636566162,0.2940673828
2018-09-06 10:05:06.460 -0400,936,440533.6408,-4.040466309,0.09117126465,0.1145935059
2018-09-06 10:05:06.479 -0400,937,440533.6577,-1.125320435,0.2280273438,0.1556396484
2018-09-06 10:05:06.494 -0400,938,440533.6745,-1.115905762,0.2074432373,0.2746124268
2018-09-06 10:05:06.513 -0400,939,440533.6914,-1.92149353,0.6804656982,0.1138305664
2018-09-06 10:05:06.528 -0400,940,440533.7083,3.39491272,0.9636688232,-0.9332275391
2018-09-06 10:05:06.547 -0400,941,440533.7251,-6.380065918,0.9736633301,-0.8669128418
2018-09-06 10:05:06.561 -0400,942,440533.742,-2.705032349,-0.7228393555,-1.400238037
2018-09-06 10:05:06.580 -0400,943,440533.7589,-1.374557495,-0.3668670654,-0.1229705811
2018-09-06 10:05:06.595 -0400,944,440533.7757,-0.284286499,-0.7392578125,-0.1032562256
2018-09-06 10:05:06.615 -0400,945,440533.7926,0.06904602051,-0.9616546631,0.3172607422
2018-09-06 10:05:06.629 -0400,946,440533.8095,0.5307006836,-0.7828826904,0.3168182373
2018-09-06 10:05:06.648 -0400,947,440533.8264,1.170211792,-0.4376373291,0.2621307373
2018-09-06 10:05:06.663 -0400,948,440533.8432,1.447128296,-0.2397003174,0.2536315918
2018-09-06 10:05:06.682 -0400,949,440533.8601,0.8956604004,-0.1596069336,0.2403259277
2018-09-06 10:05:06.696 -0400,950,440533.877,-0.0228729248,-0.05390930176,0.338684082
2018-09-06 10:05:06.715 -0400,951,440533.8938,-0.8511199951,-0.07986450195,0.4073181152
2018-09-06 10:05:06.730 -0400,952,440533.9107,-1.300018311,-0.01449584961,0.4486846924
2018-09-06 10:05:06.749 -0400,953,440533.9276,-0.9604034424,0.04975891113,0.2913513184
2018-09-06 10:05:06.764 -0400,954,440533.9444,-0.5667572021,0.1002807617,0.1611480713
2018-09-06 10:05:06.783 -0400,955,440533.9613,-0.1738739014,0.07858276367,-0.03215026855
2018-09-06 10:05:06.798 -0400,956,440533.9782,0.16796875,0.2175140381,-0.1865386963
2018-09-06 10:05:06.817 -0400,957,440533.995,0.2978973389,0.3309631348,-0.2076416016
2018-09-06 10:05:06.831 -0400,958,440534.0119,0.2108459473,0.3236541748,-0.04711914063
2018-09-06 10:05:06.850 -0400,959,440534.0288,0.1660766602,0.2981567383,0.07135009766
2018-09-06 10:05:06.865 -0400,960,440534.0456,0.2342834473,0.2343444824,0.1854400635
2018-09-06 10:05:06.884 -0400,961,440534.0625,0.2886505127,0.1572570801,0.3082885742
2018-09-06 10:05:06.899 -0400,962,440534.0794,0.1856231689,0.1366577148,0.3808746338
2018-09-06 10:05:06.918 -0400,963,440534.0963,0.09912109375,0.0428314209,0.3273773193
2018-09-06 10:05:06.933 -0400,964,440534.1131,0.07481384277,-0.03923034668,0.1984710693
2018-09-06 10:05:06.952 -0400,965,440534.13,0.1589202881,-0.1984405518,0.03405761719
2018-09-06 10:05:06.966 -0400,966,440534.1469,0.1785430908,-0.3070373535,-0.0954284668
2018-09-06 10:05:06.985 -0400,967,440534.1637,0.06896972656,-0.2942657471,-0.1358642578
2018-09-06 10:05:07.000 -0400,968,440534.1806,0.01477050781,-0.2058563232,-0.1664733887
2018-09-06 10:05:07.019 -0400,969,440534.1975,0.0357208252,-0.1803131104,-0.1455841064
2018-09-06 10:05:07.034 -0400,970,440534.2143,0.09257507324,-0.1758880615,-0.1120300293
2018-09-06 10:05:07.053 -0400,971,440534.2312,0.399230957,-0.1714324951,0.0406036377
2018-09-06 10:05:07.068 -0400,972,440534.2481,0.7106323242,-0.1060333252,0.3121490479
2018-09-06 10:05:07.087 -0400,973,440534.2649,0.5910644531,-0.08335876465,0.521697998
2018-09-06 10:05:07.101 -0400,974,440534.2818,-8.240219116,-0.2897186279,-1.363174438
2018-09-06 10:05:07.120 -0400,975,440534.2987,-2.685852051,-0.4842529297,-4.663009644
2018-09-06 10:05:07.135 -0400,976,440534.3155,-5.753341675,0.9011535645,5.588363647
2018-09-06 10:05:07.155 -0400,977,440534.3324,-0.8061523438,0.0558013916,3.648269653
2018-09-06 10:05:07.169 -0400,978,440534.3493,-1.613510132,0.0746307373,1.081161499
2018-09-06 10:05:07.188 -0400,979,440534.3662,-1.718261719,0.1283721924,1.630172729
2018-09-06 10:05:07.203 -0400,980,440534.383,-2.981033325,0.08613586426,1.402481079
2018-09-06 10:05:07.222 -0400,981,440534.3999,-5.671463013,-0.1434326172,-5.453674316
2018-09-06 10:05:07.236 -0400,982,440534.4168,-3.246994019,0.7032928467,-2.358215332
2018-09-06 10:05:07.255 -0400,983,440534.4336,-1.07220459,-0.3146820068,0.2915344238
2018-09-06 10:05:07.271 -0400,984,440534.4505,-3.645187378,-0.6818847656,0.4208526611
2018-09-06 10:05:07.289 -0400,985,440534.4674,-4.565429688,-0.3032989502,-0.1364593506
2018-09-06 10:05:07.303 -0400,986,440534.4842,-3.286758423,-0.8465423584,0.1552886963
2018-09-06 10:05:07.331 -0400,987,440534.5011,-4.509811401,-0.6623687744,-0.1264190674
2018-09-06 10:05:07.337 -0400,988,440534.518,-3.744400024,-0.4707183838,0.2531433105
2018-09-06 10:05:07.357 -0400,989,440534.5348,-1.890319824,-0.585647583,0.6454772949
2018-09-06 10:05:07.371 -0400,990,440534.5517,0.02087402344,-0.2362365723,0.05850219727
2018-09-06 10:05:07.390 -0400,991,440534.5686,0.1742706299,-0.2689056396,0.8160247803
2018-09-06 10:05:07.405 -0400,992,440534.5854,6.290115356,0.3398590088,3.994598389
2018-09-06 10:05:07.424 -0400,993,440534.6023,-6.807998657,-0.2356262207,0.5760955811
2018-09-06 10:05:07.438 -0400,994,440534.6192,-2.787155151,0.7440185547,-0.9133911133
2018-09-06 10:05:07.458 -0400,995,440534.6361,-1.407775879,0.5435333252,-0.880355835
2018-09-06 10:05:07.473 -0400,996,440534.6529,-0.2129058838,0.668548584,0.07569885254
2018-09-06 10:05:07.492 -0400,997,440534.6698,0.2609100342,0.5669403076,0.3645477295
2018-09-06 10:05:07.506 -0400,998,440534.6867,0.9844512939,0.4858093262,0.245223999
2018-09-06 10:05:07.525 -0400,999,440534.7035,1.308822632,0.1949615479,0.1476287842
2018-09-06 10:05:07.540 -0400,1000,440534.7204,0.4440612793,-0.1735534668,-0.4290466309
2018-09-06 10:05:07.559 -0400,1001,440534.7373,-0.3165283203,-0.5484313965,-0.8494262695
2018-09-06 10:05:07.573 -0400,1002,440534.7541,-0.5781555176,-0.8190002441,-0.6409912109
2018-09-06 10:05:07.592 -0400,1003,440534.771,-0.6632080078,-0.7034606934,-0.3493041992
2018-09-06 10:05:07.607 -0400,1004,440534.7879,-0.4614868164,-0.5206756592,-0.138961792
2018-09-06 10:05:07.626 -0400,1005,440534.8047,-0.2803955078,-0.4110565186,0.1461791992
2018-09-06 10:05:07.641 -0400,1006,440534.8216,-0.01422119141,-0.2415008545,0.4868164063
2018-09-06 10:05:07.660 -0400,1007,440534.8385,0.3399963379,0.02816772461,0.5761413574
2018-09-06 10:05:07.675 -0400,1008,440534.8554,0.5760650635,0.2683258057,0.5460510254
2018-09-06 10:05:07.694 -0400,1009,440534.8722,0.6025390625,0.2525787354,0.4501037598
2018-09-06 10:05:07.708 -0400,1010,440534.8891,0.4276580811,0.2893676758,0.2576599121
2018-09-06 10:05:07.727 -0400,1011,440534.906,0.2127838135,0.2441101074,0.04318237305
2018-09-06 10:05:07.742 -0400,1012,440534.9228,0.03280639648,0.06427001953,-0.1758270264
2018-09-06 10:05:07.762 -0400,1013,440534.9397,-0.07186889648,0.01319885254,-0.1885681152
2018-09-06 10:05:07.776 -0400,1014,440534.9566,-0.113494873,0.02644348145,-0.2234649658
2018-09-06 10:05:07.795 -0400,1015,440534.9734,-0.0902557373,0.1094512939,-0.2622680664
2018-09-06 10:05:07.810 -0400,1016,440534.9903,-0.01045227051,0.1757659912,-0.2221374512
2018-09-06 10:05:07.829 -0400,1017,440535.0072,0.08032226563,0.230758667,-0.2578582764
2018-09-06 10:05:07.843 -0400,1018,440535.024,0.03829956055,0.18409729,-0.2838592529
2018-09-06 10:05:07.862 -0400,1019,440535.0409,-0.1630249023,0.09571838379,-0.2155609131
2018-09-06 10:05:07.878 -0400,1020,440535.0578,-0.2868804932,0.0746307373,-0.1278533936
2018-09-06 10:05:07.896 -0400,1021,440535.0746,-0.2923126221,0.01475524902,0.01268005371
2018-09-06 10:05:07.910 -0400,1022,440535.0915,-0.1910552979,-0.006805419922,0.1669921875
2018-09-06 10:05:07.930 -0400,1023,440535.1084,-0.08128356934,0.02662658691,0.2853393555
2018-09-06 10:05:07.945 -0400,1024,440535.1253,0.159362793,0.01390075684,0.4990844727
2018-09-06 10:05:07.964 -0400,1025,440535.1421,0.3625640869,-0.04643249512,0.7322387695
2018-09-06 10:05:07.978 -0400,1026,440535.159,0.8305511475,-0.1417236328,0.833114624
2018-09-06 10:05:07.997 -0400,1027,440535.1759,-3.444869995,-0.455078125,1.550567627
2018-09-06 10:05:08.012 -0400,1028,440535.1927,-5.824752808,-1.45475769,-5.002059937
2018-09-06 10:05:08.031 -0400,1029,440535.2096,4.046829224,0.568862915,3.854263306
2018-09-06 10:05:08.045 -0400,1030,440535.2265,2.999481201,-0.4397735596,1.523788452
2018-09-06 10:05:08.065 -0400,1031,440535.2433,-2.660446167,-0.6583862305,-2.513137817
2018-09-06 10:05:08.080 -0400,1032,440535.2602,-1.716445923,0.2105407715,2.033630371
2018-09-06 10:05:08.099 -0400,1033,440535.2771,-3.992630005,-0.7210540771,0.7384033203
2018-09-06 10:05:08.113 -0400,1034,440535.2939,-5.791046143,-0.3191223145,2.198547363
2018-09-06 10:05:08.132 -0400,1035,440535.3108,-3.940551758,-0.5135498047,1.394775391
2018-09-06 10:05:08.147 -0400,1036,440535.3277,-1.715255737,-0.2663269043,0.8140869141
2018-09-06 10:05:08.167 -0400,1037,440535.3445,-1.771835327,-0.6696014404,0.7644500732
2018-09-06 10:05:08.181 -0400,1038,440535.3614,-4.815917969,-0.4740447998,-1.058502197
2018-09-06 10:05:08.200 -0400,1039,440535.3783,-2.998336792,0.0206451416,-0.5153656006
2018-09-06 10:05:08.215 -0400,1040,440535.3952,-3.842651367,-0.3966064453,0.07417297363
2018-09-06 10:05:08.234 -0400,1041,440535.412,-3.463928223,-0.3932647705,-0.1414642334
2018-09-06 10:05:08.248 -0400,1042,440535.4289,-1.765167236,-0.4212799072,0.1177520752
2018-09-06 10:05:08.267 -0400,1043,440535.4458,-1.592391968,-0.94921875,1.90953064
2018-09-06 10:05:08.282 -0400,1044,440535.4627,-0.1761627197,-1.62878418,2.884750366
2018-09-06 10:05:08.301 -0400,1045,440535.4795,3.2684021,-1.141998291,2.126800537
2018-09-06 10:05:08.315 -0400,1046,440535.4964,-1.874389648,-2.687286377,4.111236572
2018-09-06 10:05:08.335 -0400,1047,440535.5133,-0.9441833496,-0.1812896729,-0.332321167
2018-09-06 10:05:08.350 -0400,1048,440535.5301,-1.593048096,1.47819519,-1.194198608
2018-09-06 10:05:08.369 -0400,1049,440535.547,-0.2666168213,1.992630005,-1.905807495
2018-09-06 10:05:08.383 -0400,1050,440535.5639,0.07830810547,1.277038574,-1.608917236
2018-09-06 10:05:08.402 -0400,1051,440535.5807,0.05097961426,1.609268188,-1.105224609
2018-09-06 10:05:08.417 -0400,1052,440535.5976,-0.2537536621,0.9875335693,-0.8042602539
2018-09-06 10:05:08.436 -0400,1053,440535.6144,-0.8093261719,0.2172088623,-1.276397705
2018-09-06 10:05:08.450 -0400,1054,440535.6313,-0.8196411133,-0.8099517822,-0.1054992676
2018-09-06 10:05:08.470 -0400,1055,440535.6482,-0.2946166992,-1.08140564,0.5414886475
2018-09-06 10:05:08.485 -0400,1056,440535.6651,-0.1625976563,-0.9978485107,0.6935424805
2018-09-06 10:05:08.504 -0400,1057,440535.6819,0.04499816895,-0.7404327393,0.8200531006
2018-09-06 10:05:08.518 -0400,1058,440535.6988,0.007431030273,-0.3878326416,0.5975799561
2018-09-06 10:05:08.537 -0400,1059,440535.7157,0.02742004395,-0.1212310791,0.2380371094
2018-09-06 10:05:08.552 -0400,1060,440535.7326,0.1415557861,-0.1577301025,-0.1421966553
2018-09-06 10:05:08.571 -0400,1061,440535.7494,0.3582000732,0.09802246094,-0.5645904541
2018-09-06 10:05:08.585 -0400,1062,440535.7663,0.5097198486,0.2523193359,-0.3522186279
2018-09-06 10:05:08.604 -0400,1063,440535.7831,0.2229766846,0.3997497559,-0.1688842773
2018-09-06 10:05:08.619 -0400,1064,440535.8,0.07192993164,0.3467559814,-0.05822753906
2018-09-06 10:05:08.639 -0400,1065,440535.8169,0.1570587158,-0.02749633789,0.02310180664
2018-09-06 10:05:08.653 -0400,1066,440535.8337,0.09561157227,-0.4608154297,-0.2011413574
2018-09-06 10:05:08.672 -0400,1067,440535.8506,-0.1156311035,-0.4593658447,-0.3347167969
2018-09-06 10:05:08.687 -0400,1068,440535.8675,-0.324432373,0.5540466309,-0.1003112793
2018-09-06 10:05:08.706 -0400,1069,440535.8843,-0.180267334,0.4932250977,0.1801605225
2018-09-06 10:05:08.720 -0400,1070,440535.9012,0.08201599121,0.6351776123,0.2287750244
2018-09-06 10:05:08.739 -0400,1071,440535.9181,0.01567077637,0.428894043,0.2785949707
2018-09-06 10:05:08.754 -0400,1072,440535.935,-0.0108795166,-0.2749938965,0.2160797119
2018-09-06 10:05:08.774 -0400,1073,440535.9518,0.3237762451,-0.1109161377,0.3240203857
2018-09-06 10:05:08.788 -0400,1074,440535.9687,0.735748291,-0.08876037598,0.5441894531
2018-09-06 10:05:08.807 -0400,1075,440535.9856,0.9615631104,-0.05535888672,0.5747833252
2018-09-06 10:05:08.822 -0400,1076,440536.0024,1.271240234,-0.0485534668,0.4231414795
2018-09-06 10:05:08.841 -0400,1077,440536.0193,1.288162231,0.02714538574,0.6718444824
2018-09-06 10:05:08.855 -0400,1078,440536.0362,0.8172454834,0.2158966064,0.94921875
2018-09-06 10:05:08.874 -0400,1079,440536.053,-5.565765381,-0.001586914063,-1.403259277
2018-09-06 10:05:08.890 -0400,1080,440536.0699,-0.7595672607,0.1851959229,-2.97517395
2018-09-06 10:05:08.908 -0400,1081,440536.0868,-0.5218048096,0.1067504883,4.746261597
2018-09-06 10:05:08.923 -0400,1082,440536.1036,-3.187820435,-0.06547546387,3.264694214
2018-09-06 10:05:08.942 -0400,1083,440536.1205,-2.07598877,0.9608001709,1.113616943
2018-09-06 10:05:08.957 -0400,1084,440536.1374,-1.852416992,1.43649292,0.377456665
2018-09-06 10:05:08.976 -0400,1085,440536.1542,-2.065963745,0.8609924316,-7.838653564
2018-09-06 10:05:08.990 -0400,1086,440536.1711,-5.168334961,0.6463928223,-5.376617432
2018-09-06 10:05:09.009 -0400,1087,440536.188,-1.232376099,0.03254699707,0.1784667969
2018-09-06 10:05:09.024 -0400,1088,440536.2049,-1.48538208,-0.2221832275,0.6493835449
2018-09-06 10:05:09.044 -0400,1089,440536.2217,-3.956069946,-1.395401001,-0.5191955566
2018-09-06 10:05:09.058 -0400,1090,440536.2386,-2.401092529,-1.632064819,0.03527832031
2018-09-06 10:05:09.078 -0400,1091,440536.2555,-1.945770264,-1.255889893,1.316635132
2018-09-06 10:05:09.093 -0400,1092,440536.2723,-3.415130615,-0.7920684814,1.466644287
2018-09-06 10:05:09.118 -0400,1093,440536.2892,-4.599807739,-0.1021728516,1.96484375
2018-09-06 10:05:09.125 -0400,1094,440536.3061,-2.842514038,0.3317871094,1.605316162
2018-09-06 10:05:09.154 -0400,1095,440536.3229,-1.681716919,0.1217803955,1.031707764
2018-09-06 10:05:09.168 -0400,1096,440536.3398,-1.47807312,-0.1370697021,1.043014526
2018-09-06 10:05:09.179 -0400,1097,440536.3567,3.080596924,0.1705627441,2.399703979
2018-09-06 10:05:09.193 -0400,1098,440536.3735,-7.95741272,-2.173980713,2.933486938
2018-09-06 10:05:09.212 -0400,1099,440536.3904,-2.109176636,-0.2393951416,0.4801025391
2018-09-06 10:05:09.227 -0400,1100,440536.4073,-0.09881591797,-0.4400177002,1.658126831
2018-09-06 10:05:09.246 -0400,1101,440536.4241,-0.1564483643,0.000732421875,0.6812591553
2018-09-06 10:05:09.260 -0400,1102,440536.441,-0.4658660889,0.8157501221,-0.4218139648
2018-09-06 10:05:09.279 -0400,1103,440536.4579,-0.3462677002,1.458999634,-1.038131714
2018-09-06 10:05:09.294 -0400,1104,440536.4748,-0.1938018799,1.840698242,-0.8983764648
2018-09-06 10:05:09.314 -0400,1105,440536.4916,0.1749725342,1.330352783,-0.8124694824
2018-09-06 10:05:09.327 -0400,1106,440536.5085,0.3810882568,0.428024292,-0.7623443604
2018-09-06 10:05:09.347 -0400,1107,440536.5254,0.3212890625,-0.3952331543,-0.8754119873
2018-09-06 10:05:09.362 -0400,1108,440536.5423,0.3163452148,-0.9011383057,-0.8184814453
2018-09-06 10:05:09.382 -0400,1109,440536.5591,0.1499328613,-0.8268737793,-0.5639953613
2018-09-06 10:05:09.395 -0400,1110,440536.576,-0.2139282227,-0.5953521729,-0.1396942139
2018-09-06 10:05:09.414 -0400,1111,440536.5929,-0.2396240234,-0.1276702881,0.06353759766
2018-09-06 10:05:09.429 -0400,1112,440536.6097,-0.1061248779,-0.1620788574,0.02033996582
2018-09-06 10:05:09.448 -0400,1113,440536.6266,-0.1840667725,-0.1527709961,-0.0908203125
2018-09-06 10:05:09.463 -0400,1114,440536.6435,-0.3418884277,-0.1773529053,-0.1819763184
2018-09-06 10:05:09.482 -0400,1115,440536.6603,-0.3993835449,-0.3689575195,-0.3121185303
2018-09-06 10:05:09.497 -0400,1116,440536.6772,-0.3199615479,-0.3611907959,-0.5619812012
2018-09-06 10:05:09.516 -0400,1117,440536.6941,-0.2986907959,-0.111541748,-0.1845855713
2018-09-06 10:05:09.530 -0400,1118,440536.7109,-0.2637023926,0.1046447754,0.03607177734
2018-09-06 10:05:09.549 -0400,1119,440536.7278,-0.286819458,0.1435089111,0.1956634521
2018-09-06 10:05:09.564 -0400,1120,440536.7447,-0.3553924561,0.2643737793,0.2823028564
2018-09-06 10:05:09.583 -0400,1121,440536.7615,-0.3818511963,0.2064361572,0.3432617188
2018-09-06 10:05:09.597 -0400,1122,440536.7784,-0.334274292,0.08309936523,0.2347412109
2018-09-06 10:05:09.616 -0400,1123,440536.7953,-0.2818145752,-0.05940246582,0.01873779297
2018-09-06 10:05:09.632 -0400,1124,440536.8122,-0.2442779541,-0.07415771484,-0.04602050781
2018-09-06 10:05:09.651 -0400,1125,440536.829,-0.1918945313,-0.1159057617,0.008209228516
2018-09-06 10:05:09.665 -0400,1126,440536.8459,-0.08232116699,-0.1910400391,0.06939697266
2018-09-06 10:05:09.684 -0400,1127,440536.8628,0.01431274414,-0.220993042,0.1294555664
2018-09-06 10:05:09.699 -0400,1128,440536.8796,0.09683227539,-0.2273864746,0.1030731201
2018-09-06 10:05:09.718 -0400,1129,440536.8965,0.1821594238,-0.1527252197,0.1279602051
2018-09-06 10:05:09.732 -0400,1130,440536.9134,0.3177642822,-0.2565002441,-0.2643890381
2018-09-06 10:05:09.751 -0400,1131,440536.9302,0.1960144043,0.04811096191,-0.00617980957
2018-09-06 10:05:09.767 -0400,1132,440536.9471,0.3041534424,-0.05780029297,0.5309753418
2018-09-06 10:05:09.786 -0400,1133,440536.964,0.3284912109,-0.3123321533,0.2407989502
2018-09-06 10:05:09.800 -0400,1134,440536.9808,0.3549194336,-0.2530212402,-0.1126403809
2018-09-06 10:05:09.819 -0400,1135,440536.9977,0.4621124268,-0.2039642334,-0.2799072266
2018-09-06 10:05:09.834 -0400,1136,440537.0146,0.5814056396,-0.2422637939,-0.2137145996
2018-09-06 10:05:09.853 -0400,1137,440537.0314,0.6444244385,-0.2721862793,-0.07997131348
2018-09-06 10:05:09.867 -0400,1138,440537.0483,0.6371917725,-0.2790527344,-0.03761291504
2018-09-06 10:05:09.887 -0400,1139,440537.0652,0.552230835,-0.3954162598,0.08647155762
2018-09-06 10:05:09.902 -0400,1140,440537.0821,-8.897033691,-0.4140472412,1.277816772
2018-09-06 10:05:09.921 -0400,1141,440537.0989,-16.12741089,-5.934295654,0.7681884766
2018-09-06 10:05:09.935 -0400,1142,440537.1158,-16.1708374,0.2769317627,3.86227417
2018-09-06 10:05:09.954 -0400,1143,440537.1327,9.591430664,-0.3113555908,12.10354614
2018-09-06 10:05:09.969 -0400,1144,440537.1495,13.07688904,-0.6145324707,-0.5369110107
2018-09-06 10:05:09.988 -0400,1145,440537.1664,4.536422729,-0.5179138184,-2.599899292
2018-09-06 10:05:10.002 -0400,1146,440537.1833,2.888809204,-0.7617950439,-2.225692749
2018-09-06 10:05:10.021 -0400,1147,440537.2001,-10.30879211,1.87399292,-1.723907471
2018-09-06 10:05:10.036 -0400,1148,440537.217,-2.352600098,-3.23336792,2.914611816
2018-09-06 10:05:10.056 -0400,1149,440537.2339,-1.354751587,2.344192505,1.835998535
2018-09-06 10:05:10.077 -0400,1150,440537.2507,-0.9861755371,-0.3409118652,1.14956665
2018-09-06 10:05:10.099 -0400,1151,440537.2676,-0.7074890137,-0.09457397461,0.4998474121
2018-09-06 10:05:10.105 -0400,1152,440537.2845,-1.002426147,-0.5576782227,0.75
2018-09-06 10:05:10.124 -0400,1153,440537.3013,-0.9648742676,-0.6671600342,0.8924560547
2018-09-06 10:05:10.146 -0400,1154,440537.3182,-0.9250793457,-0.4835510254,0.6085968018
2018-09-06 10:05:10.160 -0400,1155,440537.3351,-0.9274597168,-0.3942108154,0.4506988525
2018-09-06 10:05:10.172 -0400,1156,440537.352,-0.9539642334,-0.1117858887,0.4019775391
2018-09-06 10:05:10.191 -0400,1157,440537.3688,-0.9461212158,-0.1270294189,0.3517456055
2018-09-06 10:05:10.205 -0400,1158,440537.3857,-0.9215545654,-0.1246185303,0.2424621582
2018-09-06 10:05:10.224 -0400,1159,440537.4026,-0.855758667,-0.1865386963,0.1720428467
2018-09-06 10:05:10.239 -0400,1160,440537.4194,-0.8723754883,-0.2828063965,0.1882324219
2018-09-06 10:05:10.258 -0400,1161,440537.4363,-0.8490600586,-0.2739715576,0.1672210693
2018-09-06 10:05:10.272 -0400,1162,440537.4532,-0.8427734375,-0.230255127,0.1662597656
2018-09-06 10:05:10.291 -0400,1163,440537.47,-0.8453369141,-0.1197357178,0.1415252686
2018-09-06 10:05:10.306 -0400,1164,440537.4869,-0.8518218994,0.004989624023,0.1078643799
2018-09-06 10:05:10.325 -0400,1165,440537.5038,-0.8479919434,0.04136657715,0.1680603027
2018-09-06 10:05:10.340 -0400,1166,440537.5206,-0.8270568848,0.09048461914,0.1810455322
2018-09-06 10:05:10.359 -0400,1167,440537.5375,-0.8232879639,0.1700592041,0.174621582
2018-09-06 10:05:10.374 -0400,1168,440537.5544,-0.8051605225,0.3173828125,0.07902526855
2018-09-06 10:05:10.393 -0400,1169,440537.5712,-0.8444671631,0.481918335,0.01002502441
2018-09-06 10:05:10.407 -0400,1170,440537.5881,-0.8290863037,0.5821075439,-0.03672790527
2018-09-06 10:05:10.426 -0400,1171,440537.605,-0.7550201416,0.3595428467,-0.1582946777
2018-09-06 10:05:10.441 -0400,1172,440537.6219,-0.8044586182,0.2937469482,-0.1147918701
2018-09-06 10:05:10.461 -0400,1173,440537.6387,-0.8281555176,0.1404418945,-0.2352752686
2018-09-06 10:05:10.475 -0400,1174,440537.6556,-0.9188842773,0.1610870361,-0.232635498
2018-09-06 10:05:10.494 -0400,1175,440537.6725,-1.10307312,0.3355407715,-0.008453369141
2018-09-06 10:05:10.509 -0400,1176,440537.6893,-1.418075562,0.6422119141,0.3782501221
2018-09-06 10:05:10.528 -0400,1177,440537.7062,-1.60848999,0.732208252,0.6709899902
2018-09-06 10:05:10.542 -0400,1178,440537.7231,-1.653274536,0.68309021,0.6809692383
2018-09-06 10:05:10.561 -0400,1179,440537.7399,-1.563034058,0.5749511719,0.4731903076
2018-09-06 10:05:10.576 -0400,1180,440537.7568,-1.490447998,0.7070617676,0.4096374512
2018-09-06 10:05:10.595 -0400,1181,440537.7737,-1.366744995,0.7620697021,0.4457244873
2018-09-06 10:05:10.610 -0400,1182,440537.7905,-1.241210938,0.7231903076,0.2352600098
2018-09-06 10:05:10.629 -0400,1183,440537.8074,-1.091461182,0.7010192871,0.07135009766
2018-09-06 10:05:10.644 -0400,1184,440537.8243,-0.9088287354,0.6376190186,-0.006881713867
2018-09-06 10:05:10.663 -0400,1185,440537.8411,-0.7839355469,0.5619354248,-0.1275787354
2018-09-06 10:05:10.677 -0400,1186,440537.858,-0.7553863525,0.4950866699,-0.2190246582
2018-09-06 10:05:10.696 -0400,1187,440537.8749,-0.7187347412,0.5746459961,-0.2685546875
2018-09-06 10:05:10.711 -0400,1188,440537.8918,-0.6714477539,0.6920471191,-0.2479858398
2018-09-06 10:05:10.730 -0400,1189,440537.9086,-0.6312713623,0.6478271484,-0.2643737793
2018-09-06 10:05:10.744 -0400,1190,440537.9255,-0.6358032227,0.6085205078,-0.2984313965
2018-09-06 10:05:10.764 -0400,1191,440537.9424,-0.663848877,0.4950561523,-0.3232727051
2018-09-06 10:05:10.779 -0400,1192,440537.9592,-0.6855926514,0.4213562012,-0.3505706787
2018-09-06 10:05:10.798 -0400,1193,440537.9761,-0.7849273682,0.5903930664,-0.1946716309
2018-09-06 10:05:10.812 -0400,1194,440537.993,-0.9549255371,0.7441864014,-0.06800842285
2018-09-06 10:05:10.831 -0400,1195,440538.0098,-0.9673309326,1.193511963,-0.446182251
2018-09-06 10:05:10.846 -0400,1196,440538.0267,-0.6525268555,0.9744873047,-0.2484436035
2018-09-06 10:05:10.865 -0400,1197,440538.0436,-0.9748687744,0.8206176758,-0.6561737061
2018-09-06 10:05:10.879 -0400,1198,440538.0604,-0.9202423096,0.7013397217,-0.4302215576
2018-09-06 10:05:10.899 -0400,1199,440538.0773,-1.002197266,0.5697631836,-0.2493743896
2018-09-06 10:05:10.914 -0400,1200,440538.0942,-1.052246094,0.5731658936,-0.3331756592
2018-09-06 10:05:10.933 -0400,1201,440538.1111,-1.070465088,0.4685821533,-0.2415313721
2018-09-06 10:05:10.947 -0400,1202,440538.1279,-1.052505493,0.3182830811,-0.2166442871
2018-09-06 10:05:10.966 -0400,1203,440538.1448,-1.017288208,0.3202514648,-0.1857452393
2018-09-06 10:05:10.981 -0400,1204,440538.1617,-0.9646148682,0.3856201172,-0.08518981934
2018-09-06 10:05:11.000 -0400,1205,440538.1785,-0.9171142578,0.4072113037,-0.1168365479
2018-09-06 10:05:11.015 -0400,1206,440538.1954,-0.8825531006,0.3924713135,-0.1194763184
2018-09-06 10:05:11.034 -0400,1207,440538.2123,-0.8345031738,0.330581665,-0.1293792725
2018-09-06 10:05:11.049 -0400,1208,440538.2291,-0.8240966797,0.2200469971,-0.1573486328
2018-09-06 10:05:11.068 -0400,1209,440538.246,-0.7919311523,0.1664886475,-0.2152404785
2018-09-06 10:05:11.082 -0400,1210,440538.2629,-0.747467041,0.1664581299,-0.2893218994
2018-09-06 10:05:11.107 -0400,1211,440538.2797,-0.700302124,0.2224273682,-0.349609375
2018-09-06 10:05:11.117 -0400,1212,440538.2966,-0.6686248779,0.2676239014,-0.3236999512
2018-09-06 10:05:11.136 -0400,1213,440538.3135,-0.6715087891,0.2710571289,-0.3335876465
2018-09-06 10:05:11.155 -0400,1214,440538.3303,-0.6920776367,0.2209625244,-0.3312835693
2018-09-06 10:05:11.169 -0400,1215,440538.3472,-0.6923522949,0.2116241455,-0.3544616699
2018-09-06 10:05:11.184 -0400,1216,440538.3641,-0.7274475098,0.2268676758,-0.2872009277
2018-09-06 10:05:11.204 -0400,1217,440538.381,-0.7749023438,0.1817169189,-0.1953735352
2018-09-06 10:05:11.218 -0400,1218,440538.3978,-0.7950134277,0.1330871582,-0.1896057129
2018-09-06 10:05:11.236 -0400,1219,440538.4147,-0.7863616943,0.1158905029,-0.2156524658
2018-09-06 10:05:11.251 -0400,1220,440538.4316,-0.8176727295,0.1792602539,-0.2056121826
2018-09-06 10:05:11.270 -0400,1221,440538.4484,-0.9207763672,0.1949920654,-0.1956787109
2018-09-06 10:05:11.284 -0400,1222,440538.4653,-0.9947967529,0.1232757568,-0.2165222168
2018-09-06 10:05:11.304 -0400,1223,440538.4822,-0.9563293457,0.1979217529,-0.2453155518
2018-09-06 10:05:11.319 -0400,1224,440538.4991,-0.9428405762,0.2038269043,-0.2116699219
2018-09-06 10:05:11.337 -0400,1225,440538.5159,-0.9703216553,0.2023773193,-0.1655426025
2018-09-06 10:05:11.352 -0400,1226,440538.5328,-1.053207397,0.1984558105,-0.1504974365
2018-09-06 10:05:11.371 -0400,1227,440538.5497,-1.095458984,0.1674957275,-0.2129974365
2018-09-06 10:05:11.386 -0400,1228,440538.5665,-1.098480225,0.1542510986,-0.1429748535
2018-09-06 10:05:11.405 -0400,1229,440538.5834,-1.048141479,0.08547973633,-0.1291809082
2018-09-06 10:05:11.419 -0400,1230,440538.6003,-0.9798431396,0.07269287109,-0.1616210938
2018-09-06 10:05:11.438 -0400,1231,440538.6171,-0.9517364502,0.06140136719,-0.1598815918
2018-09-06 10:05:11.453 -0400,1232,440538.634,-0.9723815918,0.05599975586,-0.1645050049
2018-09-06 10:05:11.473 -0400,1233,440538.6509,-1.004974365,0.06680297852,-0.1588745117
2018-09-06 10:05:11.487 -0400,1234,440538.6677,-0.9814758301,0.03587341309,-0.1300354004
2018-09-06 10:05:11.506 -0400,1235,440538.6846,-0.9351348877,-0.008819580078,-0.1187591553
2018-09-06 10:05:11.521 -0400,1236,440538.7015,-0.9225616455,-0.03974914551,-0.07867431641
2018-09-06 10:05:11.540 -0400,1237,440538.7184,-0.9432525635,-0.03729248047,-0.07984924316
2018-09-06 10:05:11.554 -0400,1238,440538.7352,-0.9941864014,-0.03086853027,-0.001388549805
2018-09-06 10:05:11.573 -0400,1239,440538.7521,-1.007873535,-0.03036499023,0.04484558105
2018-09-06 10:05:11.588 -0400,1240,440538.769,-0.9658508301,-0.03773498535,0.0294342041
2018-09-06 10:05:11.608 -0400,1241,440538.7858,-0.9279327393,-0.02006530762,0.02630615234
2018-09-06 10:05:11.622 -0400,1242,440538.8027,-0.9129943848,0.008377075195,-0.06184387207
2018-09-06 10:05:11.641 -0400,1243,440538.8196,-0.962387085,-0.0004577636719,-0.1017456055
2018-09-06 10:05:11.656 -0400,1244,440538.8364,-0.9607696533,-0.04220581055,-0.1056518555
2018-09-06 10:05:11.675 -0400,1245,440538.8533,-0.9357910156,-0.04663085938,-0.08471679688
2018-09-06 10:05:11.689 -0400,1246,440538.8702,-0.9126434326,-0.04318237305,-0.08500671387
2018-09-06 10:05:11.708 -0400,1247,440538.887,-0.8955078125,-0.02206420898,-0.07992553711
2018-09-06 10:05:11.723 -0400,1248,440538.9039,-0.8990631104,0.02606201172,-0.08343505859
2018-09-06 10:05:11.742 -0400,1249,440538.9208,-0.9109954834,0.0555267334,-0.08108520508
2018-09-06 10:05:11.757 -0400,1250,440538.9376,-0.9187316895,0.0771484375,-0.04664611816
2018-09-06 10:05:11.776 -0400,1251,440538.9545,-0.9057312012,0.0948638916,0.04223632813
2018-09-06 10:05:11.791 -0400,1252,440538.9714,-0.8765106201,0.02659606934,0.04844665527
2018-09-06 10:05:11.810 -0400,1253,440538.9883,-3.160079956,-0.7539978027,-0.6495819092
2018-09-06 10:05:11.824 -0400,1254,440539.0051,-0.3807678223,0.6650543213,-0.1176452637
2018-09-06 10:05:11.843 -0400,1255,440539.022,-0.5306854248,0.247543335,-0.1374969482
2018-09-06 10:05:11.858 -0400,1256,440539.0389,-0.5567016602,-0.07119750977,-0.04237365723
2018-09-06 10:05:11.877 -0400,1257,440539.0557,-1.326934814,0.142074585,0.1371307373
2018-09-06 10:05:11.892 -0400,1258,440539.0726,-1.14503479,-0.03155517578,-0.5808105469
2018-09-06 10:05:11.911 -0400,1259,440539.0895,-0.648223877,-0.1428833008,0.02638244629
2018-09-06 10:05:11.926 -0400,1260,440539.1063,-1.240493774,0.1341705322,-0.003646850586
2018-09-06 10:05:11.945 -0400,1261,440539.1232,-0.9046936035,0.1110687256,0.0313873291
2018-09-06 10:05:11.959 -0400,1262,440539.14,-1.038085938,0.05851745605,0.03269958496
2018-09-06 10:05:11.978 -0400,1263,440539.1569,-0.9695587158,0.1139526367,-0.1679534912
2018-09-06 10:05:11.993 -0400,1264,440539.1738,-0.9949645996,-0.05543518066,-0.01765441895
2018-09-06 10:05:12.012 -0400,1265,440539.1907,-1.008850098,-0.005340576172,-0.02322387695
2018-09-06 10:05:12.027 -0400,1266,440539.2075,-0.9893188477,-0.01075744629,-0.06004333496
2018-09-06 10:05:12.046 -0400,1267,440539.2244,-0.980255127,-0.001907348633,-0.02742004395
2018-09-06 10:05:12.061 -0400,1268,440539.2413,-1.025512695,0.1577148438,-0.03135681152
2018-09-06 10:05:12.080 -0400,1269,440539.2582,-0.9847259521,0.1101074219,0.05731201172
2018-09-06 10:05:12.094 -0400,1270,440539.275,-1.007263184,0.05606079102,0.001403808594
2018-09-06 10:05:12.113 -0400,1271,440539.2919,-0.9969177246,-0.0466003418,-0.02359008789
2018-09-06 10:05:12.129 -0400,1272,440539.3087,-0.9922637939,-0.0795135498,-0.03833007813
2018-09-06 10:05:12.147 -0400,1273,440539.3256,-0.9978027344,-0.1114501953,-0.07191467285
2018-09-06 10:05:12.161 -0400,1274,440539.3425,-0.9964141846,-0.03189086914,-0.08772277832
2018-09-06 10:05:12.181 -0400,1275,440539.3593,-0.9990081787,0.01574707031,-0.08876037598
2018-09-06 10:05:12.196 -0400,1276,440539.3762,-1.000854492,0.02212524414,-0.1050567627
2018-09-06 10:05:12.215 -0400,1277,440539.3931,-1.003555298,0.001998901367,-0.07151794434
2018-09-06 10:05:12.229 -0400,1278,440539.4099,-0.9980316162,-0.06921386719,-0.05960083008
2018-09-06 10:05:12.248 -0400,1279,440539.4268,-0.9925079346,-0.1163635254,-0.05558776855
2018-09-06 10:05:12.263 -0400,1280,440539.4437,-0.9926147461,-0.1001434326,-0.04721069336
2018-09-06 10:05:12.282 -0400,1281,440539.4606,-0.994644165,-0.04415893555,-0.05958557129
2018-09-06 10:05:12.296 -0400,1282,440539.4774,-0.9861450195,-0.02989196777,-0.02005004883
2018-09-06 10:05:12.316 -0400,1283,440539.4943,-1.026885986,0.001541137695,0.008651733398
2018-09-06 10:05:12.331 -0400,1284,440539.5112,-0.9831542969,-0.02449035645,-0.0269317627
2018-09-06 10:05:12.350 -0400,1285,440539.528,-1.002914429,-0.05053710938,-0.07099914551
2018-09-06 10:05:12.364 -0400,1286,440539.5449,-0.998840332,-0.07264709473,-0.07983398438
2018-09-06 10:05:12.383 -0400,1287,440539.5618,-1.000793457,-0.03926086426,-0.09170532227
2018-09-06 10:05:12.398 -0400,1288,440539.5786,-0.996887207,0.02114868164,-0.1089630127
2018-09-06 10:05:12.417 -0400,1289,440539.5955,-0.9993133545,0.03047180176,-0.1158905029
2018-09-06 10:05:12.432 -0400,1290,440539.6124,-0.9964752197,-0.01860046387,-0.02656555176
2018-09-06 10:05:12.450 -0400,1291,440539.6292,-1.01335144,0.04376220703,-0.03266906738
2018-09-06 10:05:12.465 -0400,1292,440539.6461,-1.010375977,-0.02299499512,0.0472869873
2018-09-06 10:05:12.485 -0400,1293,440539.663,-0.991973877,6.10E-05,0.0188293457
2018-09-06 10:05:12.499 -0400,1294,440539.6798,-0.9967193604,0.01675415039,-0.008331298828
2018-09-06 10:05:12.518 -0400,1295,440539.6967,-0.991104126,0.07174682617,-0.05172729492
2018-09-06 10:05:12.533 -0400,1296,440539.7136,-0.9795379639,0.09187316895,-0.08517456055
2018-09-06 10:05:12.552 -0400,1297,440539.7305,-1.004211426,0.06782531738,-0.07304382324
2018-09-06 10:05:12.566 -0400,1298,440539.7473,-1.002319336,0.03540039063,-0.05278015137
2018-09-06 10:05:12.585 -0400,1299,440539.7642,-1.050445557,0.05310058594,-0.0186920166
2018-09-06 10:05:12.600 -0400,1300,440539.7811,-1.047561646,0.04917907715,-0.009796142578
2018-09-06 10:05:12.621 -0400,1301,440539.7979,-1.028442383,0.04721069336,0.003677368164
2018-09-06 10:05:12.634 -0400,1302,440539.8148,-1.028213501,0.02166748047,-0.01551818848
2018-09-06 10:05:12.653 -0400,1303,440539.8317,-1.031082153,0.0147857666,-0.02392578125
2018-09-06 10:05:12.674 -0400,1304,440539.8485,-1.042007446,0.009368896484,-0.07038879395
2018-09-06 10:05:12.687 -0400,1305,440539.8654,-0.9227752686,0.01184082031,-0.01162719727
2018-09-06 10:05:12.738 -0400,1306,440539.8823,-1.035186768,0.008880615234,-0.06195068359
2018-09-06 10:05:12.788 -0400,1307,440539.8991,-0.9992370605,0.006423950195,-0.05767822266
2018-09-06 10:05:12.808 -0400,1308,440539.916,-1.002624512,0.002487182617,-0.06510925293
2018-09-06 10:05:12.856 -0400,1309,440539.9329,-0.9994659424,0.004943847656,-0.08876037598
2018-09-06 10:05:12.867 -0400,1310,440539.9497,-0.998916626,0.01377868652,-0.09861755371
2018-09-06 10:05:12.868 -0400,1311,440539.9666,-1.003372192,0.0186920166,-0.09815979004
2018-09-06 10:05:12.872 -0400,1312,440539.9835,-1.000579834,0.02262878418,-0.07989501953
2018-09-06 10:05:12.881 -0400,1313,440540.0004,-1.002120972,0.0299987793,-0.07398986816
2018-09-06 10:05:12.883 -0400,1314,440540.0172,-1.002670288,0.02311706543,-0.06658935547
2018-09-06 10:05:12.891 -0400,1315,440540.0341,-1.002151489,0.009368896484,-0.06362915039
2018-09-06 10:05:12.895 -0400,1316,440540.051,-1.002655029,0.009857177734,-0.06362915039
2018-09-06 10:05:12.896 -0400,1317,440540.0678,-1.003723145,0.01870727539,-0.05673217773
2018-09-06 10:05:12.904 -0400,1318,440540.0847,-1.00378418,0.0280456543,-0.05131530762
2018-09-06 10:05:12.931 -0400,1319,440540.1016,-0.9989471436,0.02410888672,-0.04042053223
2018-09-06 10:05:12.938 -0400,1320,440540.1184,-1.002593994,0.04081726074,-0.02171325684
2018-09-06 10:05:13.095 -0400,1321,440540.1353,-1.001205444,0.04229736328,-0.01135253906
2018-09-06 10:05:13.098 -0400,1322,440540.1522,-1.003616333,0.03100585938,-0.01333618164
2018-09-06 10:05:13.100 -0400,1323,440540.169,-1.005081177,0.005950927734,-0.006439208984
2018-09-06 10:05:13.101 -0400,1324,440540.1859,-1.001266479,0.01577758789,0.003936767578
2018-09-06 10:05:13.102 -0400,1325,440540.2028,-1.005432129,0.02905273438,0.02708435059
2018-09-06 10:05:13.104 -0400,1326,440540.2196,-1.000091553,0.01480102539,0.04093933105
2018-09-06 10:05:13.107 -0400,1327,440540.2365,-1.003601074,7.63E-05,0.05276489258
2018-09-06 10:05:13.109 -0400,1328,440540.2534,-0.9955596924,-0.01121520996,0.03804016113
2018-09-06 10:05:13.110 -0400,1329,440540.2703,-1.002868652,0.01382446289,0.02020263672
2018-09-06 10:05:13.113 -0400,1330,440540.2871,-1.005279541,0.04377746582,0.002899169922
2018-09-06 10:05:13.126 -0400,1331,440540.304,-1.005187988,0.07275390625,-0.01731872559
2018-09-06 10:05:13.142 -0400,1332,440540.3209,-1.006729126,0.09092712402,-0.01487731934
2018-09-06 10:05:13.160 -0400,1333,440540.3377,-1.003234863,0.0865020752,-0.01878356934
2018-09-06 10:05:13.176 -0400,1334,440540.3546,-1.001480103,0.04522705078,-0.0394744873
2018-09-06 10:05:13.194 -0400,1335,440540.3715,-1.004608154,0.005432128906,-0.06413269043
2018-09-06 10:05:13.208 -0400,1336,440540.3883,-1.004180908,0.006912231445,-0.05673217773
2018-09-06 10:05:13.228 -0400,1337,440540.4052,-0.9983215332,0.02410888672,-0.05619812012
2018-09-06 10:05:13.242 -0400,1338,440540.4221,-1.003799438,0.04620361328,-0.05577087402
2018-09-06 10:05:13.297 -0400,1339,440540.4389,-1.005172729,0.05406188965,-0.0715637207
2018-09-06 10:05:13.300 -0400,1340,440540.4558,-1.001586914,0.04080200195,-0.08335876465
2018-09-06 10:05:13.302 -0400,1341,440540.4727,-1.00352478,0.02703857422,-0.08337402344
2018-09-06 10:05:13.309 -0400,1342,440540.4896,-1.002471924,0.01623535156,-0.08731079102
2018-09-06 10:05:13.328 -0400,1343,440540.5064,-0.9995727539,0.02458190918,-0.08235168457
2018-09-06 10:05:13.343 -0400,1344,440540.5233,-1.001663208,0.04080200195,-0.0744934082
2018-09-06 10:05:13.362 -0400,1345,440540.5402,-1.005233765,0.06242370605,-0.06663513184
2018-09-06 10:05:13.376 -0400,1346,440540.557,-1.003890991,0.07174682617,-0.05331420898
2018-09-06 10:05:13.395 -0400,1347,440540.5739,-1.004501343,0.05947875977,-0.03506469727
2018-09-06 10:05:13.410 -0400,1348,440540.5908,-1.004516602,0.03295898438,-0.02517700195
2018-09-06 10:05:13.431 -0400,1349,440540.6077,-1.003097534,0.01921081543,-0.0128326416
2018-09-06 10:05:13.450 -0400,1350,440540.6245,-1.002090454,0.01135253906,-0.01332092285
2018-09-06 10:05:13.463 -0400,1351,440540.6414,-0.9980316162,0.003982543945,-0.02560424805
2018-09-06 10:05:13.478 -0400,1352,440540.6583,-1.000915527,0.003479003906,-0.03401184082
2018-09-06 10:05:13.497 -0400,1353,440540.6751,-1.001281738,0.01330566406,-0.05128479004
2018-09-06 10:05:13.511 -0400,1354,440540.692,-1.005279541,0.04866027832,-0.05627441406
2018-09-06 10:05:13.530 -0400,1355,440540.7089,-1.005279541,0.06977844238,-0.0641784668
2018-09-06 10:05:13.545 -0400,1356,440540.7257,-1.004302979,0.07371520996,-0.06367492676
2018-09-06 10:05:13.564 -0400,1357,440540.7426,-1.004806519,0.06340026855,-0.06022644043
2018-09-06 10:05:13.578 -0400,1358,440540.7594,-1.003753662,0.04670715332,-0.06266784668
2018-09-06 10:05:13.598 -0400,1359,440540.7763,-1.000778198,0.04325866699,-0.06362915039
2018-09-06 10:05:13.613 -0400,1360,440540.7932,-1.000183105,0.03343200684,-0.07200622559
2018-09-06 10:05:13.632 -0400,1361,440540.8101,-1.002090454,0.03883361816,-0.08139038086
